time,temp,pressure,humidity,yaw,pitch,roll,compass_x,compass_y,compass_z,acc_x,acc_y,acc_z,gyro_x,gyro_y,gyro_z
598146078775,36.522605895996094,1030.438232421875,13.134757995605469,103.26825968425324,282.4828648830155,7.00825177478816,-2.1390464305877686,-21.29924774169922,7.508215427398682,1.1501635313034058,0.023793673142790794,0.29243624210357666,-0.15796339511871338,-0.28139033913612366,-0.46587494015693665
598146078954,36.41228103637695,1030.439208984375,13.280379295349121,99.77921464110314,282.04730371964376,9.859395142386331,-4.1252851486206055,-43.63780212402344,15.194697380065918,0.9901490807533264,-0.02122787944972515,0.35214194655418396,-0.20835977792739868,-0.23710259795188904,-0.5721654891967773
598146079015,36.41228103637695,1030.435302734375,13.280379295349121,92.04373170792938,282.39868963168425,16.665953565418132,-4.478350639343262,-51.73532485961914,18.019344329833984,0.9654196500778198,-0.005306969862431288,0.42062073945999146,0.23329579830169678,0.860316812992096,-0.4286121726036072
598146079074,36.35711669921875,1030.433837890625,13.392395973205566,91.61894175287878,286.1019635581518,17.638152446593992,-4.356958389282227,-54.8671875,20.151472091674805,0.8987470269203186,0.07138101756572723,0.38430994749069214,0.3725730776786804,0.8752830028533936,-0.6133989095687866
598146079135,36.35711669921875,1030.43017578125,14.29599380493164,90.04461046994751,290.44944043656744,20.52042397444767,-3.9619088172912598,-54.57762145996094,22.053152084350586,0.9057779312133789,0.08789090812206268,0.4169653058052063,0.2012253701686859,0.9143784046173096,-0.5074138045310974
598146079192,36.41228103637695,1030.4267578125,12.794975280761719,89.40923895259625,293.8947790992186,21.941373114282538,-4.011620998382568,-53.67116928100586,23.872528076171875,0.9435994625091553,0.13717781007289886,0.4881247878074646,0.242458775639534,0.7225667238235474,-0.7942150235176086
598146079259,36.41228103637695,1030.425537109375,12.794975280761719,86.77124231021891,298.1937274835813,25.448914309705035,-4.382037162780762,-52.47884750366211,26.21351432800293,0.8451664447784424,0.24861960113048553,0.5044524669647217,0.4089195430278778,0.7167634963989258,-1.1066725254058838
598146079332,36.39389419555664,1030.43115234375,10.024438858032227,83.02717849402804,303.56544586955374,30.443628451607555,-4.560365200042725,-50.20536422729492,29.546512603759766,0.7069723010063171,0.2940218150615692,0.39162084460258484,0.28460848331451416,1.0793119668960571,-1.1552363634109497
598146079410,36.33872985839844,1030.427490234375,11.517990112304688,80.44527136511483,310.0844516209807,34.72097294762551,-5.18845796585083,-46.94207000732422,32.810367584228516,0.4936198890209198,0.3586046099662781,0.30583953857421875,-0.6231372952461243,1.15414297580719,-0.5132169723510742
598146079485,36.39389419555664,1030.425048828125,13.444669723510742,81.7041640216074,315.39895692737053,32.587542869804516,-6.43681001663208,-44.17522048950195,36.43145751953125,0.5459882020950317,0.317572683095932,0.6165530681610107,-1.8299014568328857,-0.048650674521923065,-0.06270388513803482
598146079564,36.39389419555664,1030.41845703125,12.903257369995117,83.86144512001007,316.245654497642,24.302774416031045,-6.994510173797607,-43.74016571044922,38.51709747314453,0.6834550499916077,0.09468910843133926,0.9428631067276001,-1.6249562501907349,1.5017253160476685,0.41835251450538635
598146079639,36.44905471801758,1030.425048828125,12.977935791015625,90.72424161312047,321.3415117883213,13.799236085851861,-7.764464378356934,-45.5418815612793,40.797218322753906,0.5905982851982117,0.08230668306350708,0.9842915534973145,-0.23645958304405212,1.9601796865463257,0.16575971245765686
598146079717,36.35711669921875,1030.4345703125,11.622537612915039,95.96775734837175,329.2228875621666,9.50118160249678,-9.814118385314941,-47.29158401489258,44.52903366088867,0.44100913405418396,0.04321707785129547,0.9784428477287292,0.08271750807762146,1.8389229774475098,0.5371658205986023
598146079792,36.35711669921875,1030.438720703125,15.83061695098877,101.23521972685309,336.43669942955495,7.475789749419757,-13.374517440795898,-48.96792984008789,48.613426208496094,0.35372859239578247,0.04831572249531746,0.9806361198425293,0.08271750807762146,2.6700050830841064,0.6113859415054321
598146079871,36.246795654296875,1030.443115234375,14.35947036743164,106.57008924225329,347.56462889422096,6.522266312982005,-17.92066192626953,-50.265560150146484,53.310150146484375,0.13576970994472504,0.030106279999017715,0.9774680733680725,0.05797746777534485,2.8523483276367188,0.5295299887657166
598146079947,36.46744155883789,1030.44287109375,13.508146286010742,110.39136834701115,358.7270353395482,6.484580317349637,-25.016935348510742,-50.74641799926758,58.350486755371094,0.013334525749087334,0.04321707785129547,1.1129634380340576,0.35669058561325073,2.3963372707366943,0.06008002907037735
598146080023,36.39389419555664,1030.439697265625,12.156482696533203,112.18622594767461,8.593959164668899,8.098595426245492,-32.909263610839844,-50.77107620239258,61.63447189331055,-0.291759729385376,0.04540221393108368,1.1270979642868042,0.9015823602676392,1.0502959489822388,-0.4573228359222412
598146080099,36.39389419555664,1030.434814453125,13.187032699584961,111.03132975148466,14.658099930582408,11.748137962059849,-39.26974868774414,-48.21220397949219,64.21633911132812,-0.2850951850414276,0.16291381418704987,1.031325101852417,2.300463914871216,1.6425297260284424,-0.6182858347892761
598146080174,36.320343017578125,1030.432861328125,14.322131156921387,110.14963429190607,21.05393175806466,19.809368838450787,-44.07233810424805,-44.2763671875,64.9930648803711,-0.44973453879356384,0.2767835557460785,0.5400322675704956,2.820615530014038,-0.1488325595855713,-1.5025132894515991
598146080250,36.320343017578125,1030.43994140625,13.750847816467285,103.63167355942211,24.464728446535805,29.601162183526917,-47.544921875,-37.91709518432617,64.08258056640625,-0.7543297410011292,0.4591207504272461,0.4676542580127716,0.47703102231025696,-3.3842804431915283,-0.30002501606941223
598146080329,36.33872985839844,1030.438232421875,12.910726547241211,95.19311827384392,16.563273624078036,30.4731143782545,-46.5877685546875,-32.87864685058594,62.756980895996094,-0.3690192699432373,0.4115334153175354,0.8646364212036133,-0.6329111456871033,-4.86685037612915,0.6764430403709412
598146080404,36.35711669921875,1030.43896484375,14.310929298400879,90.28592788351324,358.90796502294944,27.632211598656294,-38.90254211425781,-31.21434211730957,59.894222259521484,-0.05775953829288483,0.3879825174808502,0.6601747274398804,-0.21935535967350006,-4.404730796813965,1.7185791730880737
598146080479,36.320343017578125,1030.44921875,12.294635772705078,90.52168552309458,340.21636389924726,26.62589763012351,-28.382266998291016,-31.796579360961914,54.86552047729492,0.22402003407478333,0.1325647383928299,0.5977883338928223,-1.0012627840042114,-3.707122802734375,2.977572441101074
598146080558,36.33872985839844,1030.456298828125,12.951799392700195,101.01383280528547,322.42065435642667,18.25648605706066,-18.60590934753418,-37.55788040161133,48.20555114746094,0.553019106388092,-0.024363813921809196,0.6116790771484375,-1.3873296976089478,-1.3122254610061646,3.0563738346099854
598146080633,36.33872985839844,1030.45703125,12.951799392700195,118.457732964337,314.422673593071,3.0422930417101477,-12.50896167755127,-45.139503479003906,42.65553283691406,0.8264981508255005,-0.1268848180770874,0.6397042274475098,-0.9032189846038818,-0.668067991733551,2.2582786083221436
598146080711,36.30195617675781,1030.464599609375,14.28852653503418,136.2299944677369,310.5859685060727,346.2471212618187,-10.389731407165527,-54.38570785522461,37.02314376831055,1.001301646232605,-0.30804547667503357,0.7698383331298828,-0.2025565654039383,0.4684467613697052,2.1324403285980225
598146080787,36.37550354003906,1030.464599609375,12.570943832397461,148.6376614724687,313.39233614168,335.8076526673751,-10.73708724975586,-61.53028106689453,33.71802520751953,1.1101598739624023,-0.4144260883331299,0.7593593597412109,1.5164183378219604,0.6740029454231262,0.4149927496910095
598146080865,36.33872985839844,1030.471923828125,12.00712776184082,149.91901862114145,316.09744963793645,340.11577228824586,-12.443450927734375,-66.21377563476562,34.191802978515625,0.8589859008789062,-0.32686108350753784,0.6847881078720093,1.7745088338851929,0.641932487487793,-0.6219509840011597
598146080940,36.39389419555664,1030.467041015625,13.930073738098145,144.98632430444994,318.1032815367779,349.6339047127153,-13.597513198852539,-66.7136001586914,37.06398391723633,0.6795759201049805,-0.0706791877746582,0.6799141764640808,1.5255812406539917,0.5609928369522095,-0.7969639301300049
598146081015,36.30195617675781,1030.463134765625,12.07060432434082,139.0058926294568,320.32911724388,358.7701173980683,-14.622230529785156,-63.891807556152344,41.23174285888672,0.6184794902801514,0.032291412353515625,0.6801578998565674,1.112941861152649,0.6474303007125854,-0.7441240549087524
598146081094,36.30195617675781,1030.468994140625,13.250508308410645,133.39926354736014,323.248302529103,6.590505879205956,-14.986602783203125,-60.947959899902344,45.030677795410156,0.5859917402267456,0.09274676442146301,0.7386451363563538,0.7308455109596252,0.4375980496406555,-0.882485032081604
598146081169,36.320343017578125,1030.461181640625,13.168363571166992,127.91531832313524,325.90712783335425,12.567423421871109,-15.515968322753906,-56.54533386230469,47.98989486694336,0.5425939559936523,0.19326288998126984,0.758384644985199,0.6602905988693237,0.7079059481620789,-1.2239587306976318
598146081244,36.30195617675781,1030.45654296875,11.94365119934082,122.04974310922505,329.7124311256435,18.203698940060217,-16.31270408630371,-52.78358840942383,50.01422882080078,0.4894983172416687,0.2806681990623474,0.787628173828125,0.5161263942718506,0.7305079698562622,-1.2826017141342163
598146081323,36.30195617675781,1030.462158203125,14.437881469726562,116.51558233422222,334.2234517610932,22.84852981153966,-17.442739486694336,-48.301246643066406,52.10264587402344,0.38354945182800293,0.4350842833518982,0.6799141764640808,0.11784226447343826,0.34963345527648926,-1.6259080171585083
598146081398,36.26518249511719,1030.46240234375,12.86591911315918,110.32139988915354,338.28671593040815,26.348117251673678,-18.938121795654297,-44.615203857421875,53.337928771972656,0.2424459159374237,0.39283838868141174,0.674552857875824,-0.5327292084693909,-0.011082461103796959,-1.2288455963134766
598146081473,36.21002197265625,1030.46142578125,14.69925308227539,105.59934177627606,341.101510311904,26.13777816108855,-20.038915634155273,-41.87367630004883,54.33035659790039,0.28657105565071106,0.3734149932861328,0.8809641003608704,-0.8320531845092773,0.031067240983247757,-1.1793655157089233
598146081552,36.22840881347656,1030.4677734375,12.399185180664062,101.91723460604638,343.67602205349334,23.844811939728984,-20.934064865112305,-40.35131072998047,54.68238067626953,0.19759342074394226,0.33019790053367615,0.8436784744262695,-0.5418922305107117,0.494408518075943,-1.1634830236434937
598146081627,36.246795654296875,1030.473388671875,13.411065101623535,99.2547380751162,347.82567530920426,21.999282873160492,-22.062835693359375,-38.692970275878906,54.77286148071289,0.06691507250070572,0.37220102548599243,0.8317373394966125,-0.6408523917198181,0.6944669485092163,-0.92158043384552
598146081702,36.246795654296875,1030.473388671875,13.69857406616211,97.7830918561669,352.261097703373,19.36070737225099,-23.615966796875,-38.61024856567383,56.198055267333984,-0.02542407251894474,0.24910520017147064,0.8736532330513,-1.1924636363983154,-0.13081204891204834,-0.10332642495632172
598146081782,36.33872985839844,1030.473388671875,15.569246292114258,98.12455350334335,352.87340708699173,14.158658569224503,-24.30234146118164,-39.67054748535156,56.47896194458008,0.054307885468006134,0.15368770062923431,1.0193839073181152,-1.0040117502212524,-0.24046236276626587,0.01762489229440689
598146081857,36.22840881347656,1030.4677734375,13.717243194580078,99.65831346260474,352.4616081517425,9.668207902233918,-24.2823429107666,-41.472450256347656,56.27006912231445,0.11394958198070526,0.10779991000890732,0.9794176816940308,-0.6454338431358337,0.09123747050762177,0.18836171925067902
598146081932,36.35711669921875,1030.463134765625,12.649354934692383,102.11974971493726,352.8262847581342,6.6094233687727755,-24.35615348815918,-43.80780029296875,56.181034088134766,0.06764241307973862,0.03059186413884163,1.0089049339294434,-0.6891107559204102,-0.1738780438899994,0.12452631443738937
598146082011,36.26518249511719,1030.4580078125,13.724710464477539,103.96448135692015,352.2945605076642,3.2986725164996273,-24.1446533203125,-45.651676177978516,56.369815826416016,0.011879850178956985,-0.023398911580443382,1.0128040313720703,-0.5809875726699829,-0.544978678226471,0.4070515036582947
598146082086,36.26518249511719,1030.447998046875,11.891378402709961,106.75912155772257,351.42377542151104,0.47213303775657617,-23.482484817504883,-47.50784683227539,55.926116943359375,0.025941714644432068,-0.08756499737501144,0.9957453608512878,-0.6090874075889587,-0.668067991733551,0.8523722887039185
598146082165,36.35711669921875,1030.42822265625,11.891378402709961,111.3795396255611,349.9873652947162,357.1437038950033,-22.846664428710938,-49.48936462402344,54.62347412109375,0.13576970994472504,-0.14280572533607483,1.02157723903656,-0.32045355439186096,-0.5266526937484741,1.048154592514038
598146082239,36.320343017578125,1030.423583984375,13.351323127746582,117.12299105711145,348.57065599480865,354.2061336615253,-22.112016677856445,-52.29920959472656,53.90852355957031,0.22305025160312653,-0.2105902135372162,1.053745150566101,-0.10390182584524155,-0.6350812911987305,1.1474201679229736
598146082317,36.37550354003906,1030.427001953125,14.97182559967041,123.38519535612429,346.3561951139955,352.0947151489651,-21.633176803588867,-55.06769561767578,53.52750778198242,0.1578322947025299,-0.23519524931907654,0.9438378810882568,0.06988933682441711,-0.7044144868850708,1.519742488861084
598146082392,36.35711669921875,1030.425048828125,15.416156768798828,130.09596549868854,344.78580997285724,350.5882921680831,-21.627290725708008,-57.710594177246094,52.483604431152344,0.37118470668792725,-0.17440633475780487,0.9587033987045288,0.17923422157764435,-0.7361794710159302,1.0890825986862183
598146082467,36.30195617675781,1030.431884765625,14.396808624267578,135.59847517707752,341.80131783388515,349.8911159764797,-21.579954147338867,-60.47899627685547,51.6323127746582,0.4252501428127289,-0.20045872032642365,0.902653157711029,0.5799618363380432,-0.404174268245697,0.8450418710708618
598146082546,36.320343017578125,1030.431884765625,13.396129608154297,139.44973198210258,338.9651432527399,350.7393836364866,-21.286401748657227,-61.74232864379883,50.775123596191406,0.46549615263938904,-0.16041521728038788,0.8821825981140137,0.6245549917221069,-0.7596977949142456,0.43759477138519287
598146082621,36.37550354003906,1030.427734375,11.812965393066406,141.58325085238278,336.0633715348058,351.9665995831559,-20.78838348388672,-62.39004898071289,50.4892463684082,0.5627169609069824,-0.13846366107463837,1.0203588008880615,1.0475791692733765,-0.21663862466812134,0.23203858733177185
598146082701,36.37550354003906,1030.431640625,13.51934814453125,142.09783730445153,334.510140413768,355.44974718484457,-20.009790420532227,-61.832611083984375,50.12075424194336,0.5098637342453003,-0.055964406579732895,0.9204429984092712,1.779090404510498,0.22440609335899353,-0.10515902191400528
598146082777,36.33872985839844,1030.435791015625,14.766462326049805,140.27128079585003,335.47064430353754,3.0740049696962823,-20.29619789123535,-59.99555206298828,51.86168670654297,0.4325235188007355,0.12430980056524277,0.8327121138572693,1.483126163482666,0.36918115615844727,-0.3620278537273407
598146082853,36.320343017578125,1030.4306640625,12.41038703918457,137.34894337832506,337.4210560474535,10.363675692771189,-20.80237579345703,-56.055728912353516,53.309200286865234,0.4148249626159668,0.23405203223228455,0.7812920808792114,1.083620309829712,0.6171924471855164,-0.5437602400779724
598146082929,36.2835693359375,1030.4228515625,14.101832389831543,134.07202352022804,340.14819178114135,15.994913092673766,-21.999120712280273,-52.440467834472656,55.13739776611328,0.3362724781036377,0.30664700269699097,0.8261323571205139,0.7931537628173828,0.4644761383533478,-0.9848049879074097
598146083005,36.19163131713867,1030.421875,11.428377151489258,129.64320591898672,343.17901650834824,20.50289087884825,-23.796489715576172,-48.28216552734375,56.73899841308594,0.28390416502952576,0.43265634775161743,0.8439221382141113,0.6596797108650208,0.6229956746101379,-0.931354284286499
598146083081,36.26518249511719,1030.423828125,13.776985168457031,125.97277154204859,346.81787065188513,23.961787467001916,-25.384422302246094,-44.71466064453125,58.614891052246094,0.19444161653518677,0.4081343114376068,0.8629305362701416,0.5558326244354248,0.7204287052154541,-0.9099739789962769
598146083157,36.2835693359375,1030.424072265625,13.623896598815918,122.67354428612231,350.87340304705964,26.96479624881391,-27.00690269470215,-41.4451789855957,59.85973358154297,0.12025317549705505,0.47490227222442627,0.7330400943756104,0.4278563857078552,0.4730282425880432,-1.0880411863327026
598146083233,36.2835693359375,1030.425537109375,12.877120971679688,119.14028742847472,355.0837920524176,29.664040905026052,-28.857397079467773,-38.47454833984375,60.15267562866211,-0.010367097333073616,0.49165499210357666,0.6869814395904541,-0.1668209433555603,0.22929301857948303,-1.0400882959365845
598146083311,36.30195617675781,1030.427978515625,11.559062957763672,115.37365666726613,358.87626707550675,29.864363523193358,-30.61745262145996,-36.29993438720703,60.09991455078125,-0.029867112636566162,0.4948112666606903,0.7345023155212402,-0.611225426197052,0.05825074762105942,-0.9304379820823669
598146083387,36.37550354003906,1030.43994140625,13.776985168457031,112.16953979553227,1.3923694939134188,27.76804015558575,-32.168785095214844,-35.50972366333008,60.33827590942383,-0.03258230537176132,0.40230730175971985,0.7337712049484253,-1.2318644523620605,-0.17693236470222473,-1.2199881076812744
598146083463,36.26518249511719,1030.44677734375,13.224371910095215,107.7913885375541,2.9101775463682373,22.219218379529487,-32.794429779052734,-36.305763244628906,60.66571807861328,-0.09601906687021255,0.24303536117076874,0.9465185403823853,-1.4676584005355835,-0.3608028292655945,-1.0700206756591797
598146083539,36.22840881347656,1030.458740234375,13.164628982543945,103.92567222205614,3.007007857571039,15.11742673717118,-32.49809265136719,-38.162025451660156,61.04996871948242,-0.19672800600528717,0.15368770062923431,0.9959890246391296,-1.149703025817871,-0.5455895066261292,-0.39043307304382324
598146083614,36.22840881347656,1030.458984375,13.164628982543945,102.68763213309963,1.804620929195171,9.577118791915337,-31.278732299804688,-41.192203521728516,60.60988998413086,-0.04344307258725166,0.09687423706054688,0.999400794506073,-0.9465904235839844,-0.40814489126205444,0.16606514155864716
598146083691,36.26518249511719,1030.4580078125,16.05838394165039,104.1905059769342,359.17756982504534,5.011132209119935,-29.467836380004883,-43.93827438354492,59.5738525390625,-0.04245573282241821,-0.0019298071274533868,0.9167875647544861,-1.2953944206237793,-1.1008660793304443,0.38872554898262024
598146083770,36.320343017578125,1030.451416015625,15.020365715026855,107.11393622472639,354.4414093458833,358.88861925917735,-27.262588500976562,-47.421119689941406,57.46135330200195,0.11734382063150406,-0.21613840758800507,1.0749467611312866,-1.6765743494033813,-1.0923138856887817,0.7744869589805603
598146083845,36.33872985839844,1030.459228515625,12.488798141479492,112.49065430917125,349.6489977232338,351.26864389621346,-24.62773323059082,-51.54878234863281,56.60683059692383,0.27129697799682617,-0.3012911379337311,1.1331902742385864,-0.2721951901912689,-0.3299541175365448,0.8496233820915222
598146083921,36.22840881347656,1030.465576171875,14.941954612731934,118.1202942985817,347.97272501316644,348.23538164524655,-22.616436004638672,-55.75086212158203,53.95002746582031,0.17698551714420319,-0.28078693151474,0.9767369627952576,-0.1112322062253952,-0.43868812918663025,1.1730765104293823
598146083999,36.30195617675781,1030.46533203125,14.363204002380371,124.26758749499822,347.3389380997026,346.7558235059175,-21.978370666503906,-58.523948669433594,52.98201370239258,0.21577687561511993,-0.2875412702560425,0.984535276889801,0.19542214274406433,-0.45884668827056885,1.2115609645843506
598146084075,36.246795654296875,1030.46630859375,14.983027458190918,129.94255944993003,346.77072527113916,346.18903733311686,-22.101303100585938,-61.125831604003906,51.84233474731445,0.15152870118618011,-0.2474977821111679,0.911669909954071,0.38051432371139526,-0.5614719986915588,1.531959891319275
598146084150,36.21002197265625,1030.466064453125,12.429056167602539,136.1786997470701,346.1977466780823,346.1507157030049,-22.648283004760742,-63.10416793823242,51.43909454345703,0.3258472979068756,-0.2749975323677063,0.9972074627876282,0.4895537495613098,-0.8491895794868469,1.114738941192627
598146084229,36.11808395385742,1030.465576171875,14.766462326049805,141.96452567223122,345.1035913541813,346.94058695315545,-24.037120819091797,-64.90776824951172,51.214900970458984,0.4121580421924591,-0.1903272420167923,0.9825856685638428,0.6230278015136719,-0.3501126766204834,0.8529831171035767
598146084304,36.19163131713867,1030.465087890625,13.504412651062012,145.0409931385667,344.23672252774344,348.87441926663485,-24.884328842163086,-65.82467651367188,52.053707122802734,0.4060969054698944,-0.20697182416915894,0.9594345092773438,0.8450773358345032,0.2567819356918335,0.28212955594062805
598146084382,36.09969711303711,1030.467529296875,13.45587158203125,144.79613085682175,343.88335586084366,352.4832043561244,-25.56148910522461,-65.23899841308594,52.816978454589844,0.4075515866279602,-0.10903409868478775,0.9708882570266724,0.9846600294113159,0.007548928260803223,-0.38829505443573
598146084460,36.246795654296875,1030.471435546875,13.127290725708008,141.98349993774553,342.95951301144424,357.10115096270044,-26.069787979125977,-63.52305603027344,54.17479705810547,0.38912567496299744,-0.03739001601934433,1.006711721420288,1.2910090684890747,0.064664825797081,-0.8436951041221619
598146084542,36.246795654296875,1030.4716796875,12.899524688720703,136.82266364239726,342.64361334723657,3.9163745479114818,-25.7384033203125,-59.44108963012695,55.343833923339844,0.3520314693450928,0.08036433905363083,0.906552255153656,1.4189852476119995,0.3930048942565918,-1.3091744184494019
598146084618,36.19163131713867,1030.474609375,12.738967895507812,130.47654363924164,344.5836090526682,11.468580026878518,-25.621200561523438,-55.294429779052734,56.838096618652344,0.27372145652770996,0.26124483346939087,0.7890903949737549,1.2448886632919312,0.47608256340026855,-1.6656142473220825
598146084697,36.19163131713867,1030.472900390625,11.962320327758789,123.04249744470806,348.04572095237364,18.646180792608444,-26.334606170654297,-49.31901550292969,57.7668342590332,0.0843711793422699,0.3260704278945923,0.766670286655426,0.4651191532611847,-0.006195539608597755,-1.4967100620269775
598146084772,36.19163131713867,1030.471435546875,13.306516647338867,116.2934645824134,350.9339688957511,22.168835489116887,-27.124298095703125,-44.11048889160156,57.90044403076172,0.15249848365783691,0.3573906719684601,0.8456280827522278,0.23573926091194153,0.2851871848106384,-1.7163161039352417
598146084847,36.11808395385742,1030.4736328125,11.499320983886719,110.42878412328449,354.3909884625435,23.804204757565966,-28.302303314208984,-39.79766082763672,58.1421012878418,0.05552011355757713,0.3853118121623993,0.8836447596549988,0.28613564372062683,0.6529280543327332,-1.595975637435913
598146084926,36.21002197265625,1030.47607421875,11.088594436645508,105.52089705365846,359.43858619786846,25.378349917842343,-29.835826873779297,-36.48117446899414,57.984580993652344,-0.13896846771240234,0.4003649652004242,0.7705694437026978,0.25559237599372864,0.26838839054107666,-1.3788130283355713
598146085001,36.15485763549805,1030.47265625,14.762728691101074,101.58941284664245,4.382542215840846,26.700462805292542,-32.60248947143555,-33.6126594543457,57.864131927490234,-0.2641141414642334,0.4236730635166168,0.6582251787185669,-0.329616516828537,0.13735780119895935,-1.0095449686050415
598146085076,36.246795654296875,1030.475341796875,12.675491333007812,99.01419247292668,8.314861413482898,25.700263563614214,-34.54817581176758,-32.112178802490234,58.24761962890625,-0.2468356341123581,0.3690447211265564,0.7742248773574829,-1.0733449459075928,-0.9890776872634888,-0.32354333996772766
598146085155,36.22840881347656,1030.462158203125,13.60896110534668,97.75657023161975,7.136399783995939,20.954861571700917,-35.17573547363281,-32.29594802856445,58.5330924987793,-0.19179129600524902,0.293050616979599,0.7052586674690247,-1.6319811344146729,-1.3195557594299316,0.09978626668453217
598146085230,36.22840881347656,1030.461181640625,13.60896110534668,98.55592776075385,3.583158219723709,14.113657867877874,-33.63969039916992,-34.71381759643555,58.175209045410156,-0.24387362599372864,0.04783013463020325,1.0108546018600464,-1.9374138116836548,-2.325650930404663,-0.013223801739513874
598146085308,36.08130645751953,1030.463623046875,15.550576210021973,100.14371451635003,357.02027319863447,4.848182678543648,-29.773948669433594,-39.42682647705078,56.94451904296875,-0.0029620276764035225,-0.07791595906019211,1.2267699241638184,-0.876340925693512,-1.191884994506836,0.9217054843902588
598146085385,36.21002197265625,1030.458251953125,13.086217880249023,107.12433860283231,353.4362330307342,359.23114316085224,-26.53706169128418,-43.63573455810547,55.42365264892578,0.13140568137168884,-0.1765773594379425,1.2560135126113892,-0.2877722680568695,-0.4096720516681671,1.4794254302978516
598146085459,36.08130645751953,1030.453369140625,11.73082160949707,115.64250657337617,352.8664863978152,356.6874940025536,-24.245105743408203,-48.4333610534668,54.614959716796875,-0.012341782450675964,-0.1835729032754898,1.0381486415863037,0.21435897052288055,-0.6705114841461182,1.9748371839523315
598146085538,36.320343017578125,1030.44677734375,13.76951789855957,125.05864634429076,352.7380532282096,356.48134181792966,-23.82062530517578,-51.69020462036133,55.08559036254883,0.10352440178394318,-0.2040771096944809,1.0778710842132568,0.47153323888778687,-0.3760744631290436,2.5817315578460693
598146085616,36.08130645751953,1030.42626953125,11.977256774902344,135.9870582993379,350.97792201683376,356.6485683275869,-24.16345977783203,-55.13890075683594,55.022178649902344,0.2502041757106781,-0.17464753985404968,0.8809641003608704,1.3499574661254883,0.27510789036750793,2.3034825325012207
598146085692,36.21002197265625,1030.41943359375,14.11303424835205,145.02148611829716,348.7572320034976,359.8140267955259,-25.19318389892578,-56.87330627441406,55.70117950439453,0.4310688376426697,-0.09576668590307236,1.0188965797424316,1.3566770553588867,-0.658905029296875,1.8105144500732422
598146085774,36.19163131713867,1030.4189453125,13.265443801879883,151.74046614824377,343.9997576522263,3.501539380132761,-26.091922760009766,-57.60498046875,56.11135482788086,0.6749694347381592,0.022579709067940712,1.119055986404419,2.4085869789123535,-0.5281798839569092,0.17125749588012695
598146085851,36.21002197265625,1030.41552734375,13.153428077697754,151.72059029775903,340.99747287046637,12.453470253305909,-26.100154876708984,-54.744178771972656,56.864990234375,0.571929931640625,0.28261053562164307,0.7159813046455383,3.04388689994812,1.144369125366211,-0.7630608677864075
598146085928,36.11808395385742,1030.421630859375,13.530549049377441,147.73278435084708,344.16733292841803,25.85476756528178,-27.19131088256836,-48.556434631347656,58.648414611816406,0.29481422901153564,0.5421558618545532,0.6107043027877808,1.9046231508255005,0.11139602214097977,-0.9438769817352295
598146086005,36.09969711303711,1030.422607421875,14.415477752685547,141.662002933513,346.17596776614005,36.30785128806208,-28.636255264282227,-41.44567108154297,58.51029968261719,0.19225960969924927,0.6327174305915833,0.5700069069862366,1.7653459310531616,0.49654653668403625,-1.0400882959365845
598146086081,36.136470794677734,1030.421875,12.92939567565918,137.37416043674077,350.4427254689445,44.77522655684314,-30.420696258544922,-34.58287811279297,57.95895004272461,0.17940998077392578,0.7087115049362183,0.5161499381065369,1.2439724206924438,0.18317267298698425,-1.643012285232544
598146086160,36.136470794677734,1030.417236328125,13.403597831726074,132.6817248542936,356.50601673008,51.47424877403496,-33.42232131958008,-28.648927688598633,57.02278518676758,-0.04566459357738495,0.771837592124939,0.5178557634353638,0.6208897829055786,0.4598946273326874,-1.1989132165908813
598146086240,36.11808395385742,1030.425048828125,13.108621597290039,130.11652436809027,2.4286067346434375,55.33284803241777,-36.34832763671875,-23.974090576171875,55.6876335144043,-0.11107604205608368,0.811655580997467,0.3197302520275116,-0.19950222969055176,0.01274128258228302,-0.8662971258163452
598146086317,36.11808395385742,1030.423095703125,13.056346893310547,127.62212562282328,6.449203352543555,56.042016328656445,-39.385704040527344,-21.249116897583008,54.42250061035156,-0.24288628995418549,0.7786357402801514,0.2977975606918335,-0.9920998811721802,-0.5309287905693054,-1.0315361022949219
598146086393,36.06291961669922,1030.423583984375,12.145280838012695,122.65181062418333,9.549239667270637,51.973535602362894,-41.62558364868164,-20.457237243652344,54.35709762573242,-0.24634197354316711,0.6191210746765137,0.5453935861587524,-2.190617322921753,-1.663778305053711,-0.7951313257217407
598146086473,36.15485763549805,1030.420166015625,15.446027755737305,116.14873287390083,8.534876320800995,41.3600090284317,-41.31881332397461,-23.40916633605957,56.201515197753906,-0.14316467940807343,0.5006383061408997,0.8887624144554138,-1.5980781316757202,-0.5107702016830444,-0.5843827724456787
598146086548,36.11808395385742,1030.424560546875,14.329598426818848,114.119722728111,8.267497466683446,32.67748963098441,-39.98252487182617,-27.79600715637207,58.111328125,-0.137981116771698,0.4299856424331665,0.8972918391227722,-1.1655855178833008,-0.12134363502264023,-0.36508217453956604
598146086624,36.08130645751953,1030.4208984375,13.989815711975098,113.04454166972427,8.20108326851518,26.527997113655132,-39.0270881652832,-31.895977020263672,59.54156494140625,-0.23646855354309082,0.3355393409729004,0.8624431490898132,-1.3738906383514404,-0.6653191447257996,0.03167479485273361
598146086703,36.044532775878906,1030.431396484375,13.355056762695312,112.01193318043423,5.792245022320464,19.46904612531844,-37.811729431152344,-35.94944763183594,60.06424331665039,-0.1959875077009201,0.192291721701622,0.9981822967529297,-1.4789594411849976,-1.0822346210479736,0.7882314324378967
598146086783,36.08130645751953,1030.441162109375,13.941275596618652,113.71320352909018,359.9788635527266,12.110805639061892,-34.55051040649414,-41.399391174316406,60.44310760498047,-0.017031658440828323,0.10100170969963074,1.0742157697677612,-0.563883364200592,-0.2230527102947235,1.1559722423553467
598146086859,36.09969711303711,1030.45849609375,14.105566024780273,118.64033124160812,357.56750624738856,8.319208828889613,-32.118568420410156,-45.87145233154297,60.06052017211914,-0.035050664097070694,0.02694997750222683,0.9421320557594299,-0.5730463266372681,-0.4970257580280304,1.5118012428283691
598146086940,36.17324447631836,1030.459228515625,14.534961700439453,124.91372339048144,354.60710034363774,4.864555068870992,-30.302988052368164,-50.020851135253906,59.185115814208984,0.001939567388035357,-0.027982203289866447,1.0110981464385986,-0.3552728593349457,-0.7560325860977173,2.013627052307129
598146087017,36.09969711303711,1030.4580078125,13.172097206115723,133.17456398404505,350.99557207942274,1.2179543168765021,-29.502029418945312,-53.593055725097656,58.30290603637695,0.2608718276023865,-0.13605140149593353,1.111744999885559,-0.2984623908996582,-1.6576696634292603,1.9421558380126953
598146087093,36.11808395385742,1030.458740234375,13.922606468200684,141.83544875729632,345.02579379198755,358.15655947721365,-28.571325302124023,-57.67672348022461,57.01168441772461,0.4798004925251007,-0.058859117329120636,0.8695103526115417,0.27972155809402466,-1.203491449356079,0.9180402755737305
598146087174,36.06291961669922,1030.452392578125,11.122200012207031,146.1195073292684,339.6579891044095,357.5155189028513,-27.42966079711914,-60.59585189819336,55.480594635009766,0.2521437406539917,-0.14545921981334686,0.9082581996917725,0.00483219139277935,-1.7584624290466309,0.6318498849868774
598146087255,36.19163131713867,1030.448974609375,16.125593185424805,148.2182878574299,333.49992469967185,355.87315061149366,-25.238386154174805,-62.32801055908203,53.673038482666016,0.43591776490211487,-0.11385862529277802,0.9645521640777588,0.6205843687057495,-0.7975714206695557,1.1184040307998657
598146087330,36.17324447631836,1030.44873046875,13.015274047851562,152.03236111261342,330.51570576826657,355.50995700992553,-23.554960250854492,-63.92247009277344,51.51860427856445,0.4012479782104492,-0.12495500594377518,0.7337712049484253,1.0454411506652832,-0.9771658182144165,1.594878911972046
598146087405,36.17324447631836,1030.447509765625,13.015274047851562,158.587307319453,326.8712295252691,354.9632746451732,-22.885950088500977,-64.73283386230469,50.78302001953125,0.6194493174552917,-0.15173108875751495,0.5895026922225952,0.14349859952926636,-0.04132029041647911,2.2585840225219727
598146087480,36.136470794677734,1030.447021484375,14.486421585083008,168.05739192443235,325.7924865232302,349.2277799571191,-23.678665161132812,-66.23359680175781,50.12753677368164,0.8783815503120422,-0.2180681973695755,0.6638302206993103,-0.3638249933719635,-0.8751513361930847,1.0600664615631104
598146087560,36.19163131713867,1030.4453125,13.11235523223877,173.53004001577006,321.57397727672276,342.29448481271675,-24.58938980102539,-68.47826385498047,49.03055953979492,0.8553491830825806,-0.37679484486579895,0.7854349613189697,-0.3629086911678314,-0.8375831246376038,-0.04743225499987602
598146087637,36.17324447631836,1030.44775390625,14.766462326049805,172.92181167018043,318.4471883916772,339.1732317959935,-24.326013565063477,-70.77204132080078,47.63397979736328,0.8931707739830017,-0.33675137162208557,0.8419725894927979,0.6407428979873657,0.4647815525531769,-0.7425969243049622
598146087712,36.11808395385742,1030.4580078125,16.510181427001953,166.4592096209194,318.5149267927708,344.1285476992161,-23.637922286987305,-71.1083755493164,47.22850799560547,0.6577557921409607,-0.1826080083847046,0.7732501029968262,0.8001787662506104,-0.04284745454788208,-0.8345321416854858
598146087789,36.11808395385742,1030.45751953125,13.291581153869629,159.54556919962744,317.55943796939937,350.68556259960053,-22.222726821899414,-68.66751861572266,48.50674819946289,0.7430967688560486,-0.14401187002658844,0.734745979309082,1.236336588859558,0.3383324444293976,-0.8659916520118713
598146087866,36.06291961669922,1030.467041015625,14.546163558959961,152.76436614634204,317.6084206710321,358.7532064900136,-21.011924743652344,-65.40511322021484,49.196983337402344,0.7358233332633972,0.00048558515845797956,0.5960825085639954,1.3184980154037476,0.0008294107392430305,-1.281990885734558
598146087943,36.11808395385742,1030.461669921875,11.454513549804688,143.69582836266773,317.2924595351219,9.097100781009656,-20.296796798706055,-60.75593185424805,51.13196563720703,0.643451452255249,0.18889263272285461,0.5812169909477234,0.2122209370136261,-0.5953750610351562,-1.3693445920944214
598146088018,36.17324447631836,1030.46142578125,13.534283638000488,134.05548080205827,316.6604416406531,16.12754512107166,-18.94451141357422,-56.849971771240234,51.47999954223633,0.6662413477897644,0.25978806614875793,0.6504269242286682,-0.09382254630327225,-0.037044234573841095,-1.2074652910232544
598146088093,36.136470794677734,1030.460693359375,13.829259872436523,126.2140001631551,318.1552797669292,20.648715417628022,-17.699033737182617,-53.17128372192383,52.00517654418945,0.7113363146781921,0.3214573562145233,0.6964855790138245,0.18106681108474731,-0.12500882148742676,-2.0443508625030518
598146088170,36.15485763549805,1030.4541015625,12.511201858520508,116.05207203676682,321.83544374833997,27.15504604550274,-16.988555908203125,-50.158287048339844,52.444541931152344,0.5287745594978333,0.3887109160423279,0.5717127919197083,-0.10176379233598709,0.2983207702636719,-1.8876638412475586
598146088245,36.11808395385742,1030.457275390625,12.384248733520508,107.38606462163803,327.24514140119226,31.822209928020833,-17.395490646362305,-45.51205062866211,52.48320388793945,0.39058035612106323,0.4120189845561981,0.609729528427124,-1.0171452760696411,-0.6937243342399597,-2.329319477081299
598146088324,36.15485763549805,1030.4560546875,14.497623443603516,97.46175877647448,332.26711824316686,33.077711395590484,-18.290782928466797,-41.84404373168945,52.6500358581543,0.46355658769607544,0.32291412353515625,0.7808047533035278,-1.2889803647994995,0.21982461214065552,-2.600543737411499
598146088399,36.09969711303711,1030.453125,13.683638572692871,89.88241396772723,338.36860306836746,30.763195927399526,-19.06647300720215,-38.80242919921875,52.73262023925781,0.38112497329711914,0.29717808961868286,0.9155690670013428,-1.0767046213150024,0.07993645966053009,-3.3167831897735596
598146088474,35.952598571777344,1030.45458984375,13.95247745513916,80.67255273993618,344.665376662317,28.964434873625404,-20.654541015625,-36.4250602722168,53.532997131347656,0.12219274044036865,0.31004610657691956,0.9396950602531433,-0.715072512626648,0.29404473304748535,-2.6069576740264893
598146088553,36.11808395385742,1030.449462890625,13.526815414428711,73.68901216267831,350.9166270454484,27.132873543909586,-23.010210037231445,-33.364349365234375,53.9647216796875,0.008243161253631115,0.36103254556655884,0.9192245006561279,0.18320484459400177,1.2094262838363647,-1.75480055809021
598146088629,36.08130645751953,1030.45458984375,14.29226016998291,71.93188452698999,358.16584063707865,27.530192478118398,-26.474714279174805,-30.411060333251953,54.21551513671875,-0.0738038569688797,0.43969735503196716,0.8349054455757141,0.1819831132888794,0.4947139322757721,-1.7328094244003296
598146088703,36.044532775878906,1030.44775390625,12.757637023925781,70.20918787490773,3.9149717978106904,28.152380022824246,-30.14961051940918,-27.859848022460938,54.21769714355469,-0.17006976902484894,0.46106308698654175,0.6786957383155823,-0.004941652528941631,0.6675888299942017,-1.3253623247146606
598146088782,35.98937225341797,1030.44140625,14.183978080749512,69.12444455168297,9.376505036934661,27.806917592341463,-33.277835845947266,-26.062458038330078,54.08266830444336,-0.3860509693622589,0.47223156690597534,0.7737374901771545,-0.496077299118042,-0.4570140838623047,-1.5000698566436768
598146088857,35.98937225341797,1030.44091796875,14.183978080749512,66.63091324044058,12.177489629702373,24.100080014674457,-35.91432189941406,-24.703908920288086,54.10862350463867,-0.5603169202804565,0.29547855257987976,0.9350647926330566,-1.054713487625122,-0.8021529316902161,0.45469897985458374
598146088935,36.06291961669922,1030.433349609375,12.5,69.88521834219567,10.327894039256785,19.003339922044873,-36.5826301574707,-25.56858253479004,54.877479553222656,-0.28015846014022827,0.1901065856218338,1.0391234159469604,-0.6536805629730225,-0.17662695050239563,1.8590781688690186
598146089010,36.06291961669922,1030.428955078125,13.95621109008789,80.0485739781205,6.564889681610646,17.299258950545468,-35.095699310302734,-27.71068572998047,55.62089538574219,-0.06837347894906998,0.224825918674469,0.8692666292190552,-0.2688354253768921,-0.8366668224334717,1.7454572916030884
598146089088,36.08130645751953,1030.43212890625,12.96299934387207,89.27675377326551,0.9825435228389616,16.968729021135626,-32.470462799072266,-29.56358528137207,56.19845199584961,0.0014546754537150264,0.2291961908340454,0.8726783990859985,-0.35618916153907776,-1.0523022413253784,1.4174226522445679
598146089164,35.952598571777344,1030.423583984375,14.885946273803711,96.48564278180963,355.1381458440589,15.39218304936599,-28.913192749023438,-32.041404724121094,55.35746765136719,-0.038753196597099304,0.16000030934810638,0.872434675693512,-0.363519549369812,-1.236783504486084,2.0130162239074707
598146089239,36.044532775878906,1030.4296875,13.900202751159668,105.10695343900984,348.90369431119115,12.793786990022733,-25.15070152282715,-35.32745361328125,54.551944732666016,0.2666904926300049,0.09638865292072296,0.9104514122009277,-0.24531713128089905,-0.6781473159790039,2.187418222427368
598146089318,36.09969711303711,1030.43115234375,13.933808326721191,116.40983734549208,343.0930517474544,8.605320330579568,-21.66227912902832,-40.289268493652344,53.403865814208984,0.5033177137374878,0.07672245800495148,0.9277539253234863,-0.3189263939857483,-0.5214603543281555,1.92169189453125
598146089393,36.044532775878906,1030.43603515625,15.591649055480957,126.15592989483166,338.5765140267026,4.051494472714552,-19.14784049987793,-45.51934814453125,52.29070281982422,0.5030752420425415,-0.0246050413697958,0.9002161026000977,-0.2770821154117584,-0.7490076422691345,1.7198009490966797
598146089471,36.026145935058594,1030.435791015625,12.671758651733398,134.431141206409,334.56265773829625,359.1367909810186,-17.617185592651367,-50.640708923339844,50.62382507324219,0.4776184558868408,-0.09383687376976013,0.851476788520813,-0.11428653448820114,-0.38218310475349426,1.5081361532211304
598146089547,36.026145935058594,1030.4375,13.004072189331055,141.46491099482313,332.9863713137151,354.883120240829,-16.909839630126953,-54.85591506958008,49.724308013916016,0.5467155575752258,-0.13581018149852753,0.9735689163208008,-0.2718897759914398,-0.2847501039505005,1.4586560726165771
598146089622,36.136470794677734,1030.43896484375,13.377460479736328,147.76768661750583,332.30054348141766,350.4818283019428,-17.597797393798828,-59.4527473449707,48.56696701049805,0.6953348517417908,-0.17102916538715363,0.9937956929206848,0.673729658126831,0.08848857134580612,0.6837734580039978
598146089700,35.952598571777344,1030.439453125,15.782076835632324,150.05055440417755,332.60759634310284,351.5746705219759,-19.040081024169922,-61.81510925292969,48.77973556518555,0.6162974834442139,-0.15607315301895142,0.8816952109336853,1.357593297958374,0.17339885234832764,-0.06759081035852432
598146089776,35.98937225341797,1030.43798828125,14.871010780334473,147.62138396548417,332.49835258997035,357.6473424076062,-19.794137954711914,-61.4321403503418,49.969482421875,0.5741119384765625,0.0609409362077713,0.8261323571205139,1.2305333614349365,-0.028492121025919914,-1.1081997156143188
598146089851,35.970985412597656,1030.438720703125,15.098777770996094,141.01891330239965,331.8904555085555,5.496857696850807,-20.00692367553711,-58.83214569091797,51.124839782714844,0.5467155575752258,0.12115348875522614,0.8024937510490417,1.1358492374420166,0.8169453740119934,-1.3467426300048828
598146089930,35.89743423461914,1030.439697265625,14.098098754882812,133.99720562805973,335.7678292494194,13.31795875881796,-19.49045753479004,-53.933311462402344,52.79518508911133,0.37094223499298096,0.23502320051193237,0.7259728908538818,0.8472153544425964,1.2198110818862915,-1.2990951538085938
598146090005,35.952598571777344,1030.44482421875,13.287847518920898,128.27006468824737,341.7783018039295,19.22337617370413,-21.188322067260742,-49.300254821777344,54.47941589355469,0.27541857957839966,0.3433087170124054,0.7286535501480103,0.29988011717796326,1.3346537351608276,-1.1500439643859863
598146090080,35.860660552978516,1030.452392578125,15.322810173034668,124.21828718956908,348.5769406226187,22.076573293808355,-24.017696380615234,-45.05363082885742,56.5454216003418,0.044852495193481445,0.40449243783950806,0.7191493511199951,-0.06389015167951584,1.2460782527923584,-1.6839402914047241
598146090160,35.8422737121582,1030.45654296875,12.742700576782227,119.03466538314964,357.2937787324375,22.843608660242666,-28.079072952270508,-41.75795364379883,58.7197380065918,-0.13477225601673126,0.32072901725769043,0.8346617221832275,-0.8714540004730225,1.3083864450454712,-0.9063087701797485
598146090235,35.91582489013672,1030.466796875,14.374405860900879,116.6234583419734,4.365275497619053,19.645708968200818,-32.242271423339844,-40.82941818237305,60.762779235839844,-0.17031659185886383,0.1939912587404251,0.9667453765869141,-0.4743915796279907,1.6162625551223755,-0.41578400135040283
598146090310,35.91582489013672,1030.458740234375,14.374405860900879,116.35515485099695,10.938155219898144,17.412365175653587,-35.82450866699219,-41.1395263671875,61.71588897705078,-0.3065698742866516,0.2784830927848816,0.8222331404685974,-0.15429820120334625,1.6361156702041626,-0.6430258750915527
598146090388,35.98937225341797,1030.458984375,12.585878372192383,115.29928956758303,19.439676311887382,16.53133907461364,-41.4246826171875,-41.429908752441406,62.88617706298828,-0.47614598274230957,0.21608540415763855,0.8280819058418274,-0.5370053052902222,1.1202399730682373,-0.2810882031917572
598146090463,35.952598571777344,1030.458251953125,13.489477157592773,114.33100779989617,25.21079854731276,14.44666971727737,-45.29910659790039,-41.764442443847656,63.1660270690918,-0.511937141418457,0.21122953295707703,0.7308468222618103,-0.3448881506919861,0.3462736904621124,-0.11279483884572983
598146090541,35.91582489013672,1030.458984375,15.584181785583496,112.98534442018777,27.795886836831894,12.036057756332566,-48.14319610595703,-43.7794303894043,63.55381774902344,-0.40481045842170715,0.14397600293159485,0.7055023908615112,-0.78074049949646,-0.35225069522857666,-0.6940330862998962
598146090616,35.91582489013672,1030.458984375,13.859130859375,108.60060202966054,26.148434963741064,7.126440087525592,-49.052001953125,-45.46428680419922,63.62997817993164,-0.5978359580039978,-0.003377162618562579,0.8765775561332703,-1.6377843618392944,-1.835736870765686,0.3755919337272644
598146090700,35.8422737121582,1030.4580078125,15.696197509765625,108.22287890818049,15.991984649067122,0.0008499543848941066,-45.381080627441406,-49.385494232177734,62.851104736328125,-0.14242418110370636,-0.1478714793920517,1.1941145658493042,-0.7605819702148438,-1.6399545669555664,1.0148624181747437
598146090780,35.970985412597656,1030.46484375,16.879837036132812,114.5409814753607,7.194432059392129,356.9486324116473,-40.07217788696289,-52.77819061279297,61.09783935546875,0.062066156417131424,-0.09431932866573334,0.9014346599578857,-0.16956983506679535,-2.8622961044311523,0.15445870161056519
598146090855,35.952598571777344,1030.455810546875,13.679903984069824,118.3047640476854,357.0368522021842,355.94088004796396,-35.48979568481445,-55.96965026855469,59.59999084472656,0.09940282255411148,-0.10227978229522705,1.0045183897018433,0.018271226435899734,-1.7257812023162842,0.1639271080493927
598146090930,35.87904739379883,1030.45263671875,14.990494728088379,121.33249128410367,349.37583455266287,354.0076492180184,-30.773942947387695,-57.626869201660156,57.33515167236328,0.1612265408039093,-0.14521799981594086,1.0420477390289307,0.07844145596027374,-1.28840172290802,0.5218941569328308
598146091009,35.860660552978516,1030.454345703125,14.777664184570312,124.94275169445399,343.5261198917791,351.8760440813663,-25.104162216186523,-59.61256408691406,54.295501708984375,0.18983514606952667,-0.19925259053707123,0.8980228900909424,-0.25020405650138855,-1.3840020895004272,1.1935404539108276
598146091085,35.87904739379883,1030.459228515625,16.92464256286621,130.72458878913983,337.92110785696843,348.2106461151674,-22.101438522338867,-61.73252487182617,50.24317169189453,0.3389393985271454,-0.25594067573547363,0.9406698346138,-0.024183908477425575,-1.0016005039215088,1.264095425605774
598146091160,35.93421173095703,1030.455810546875,16.569923400878906,137.46247478270902,334.6101360907643,344.35742733830324,-19.819366455078125,-64.56416320800781,47.4680290222168,0.5033177137374878,-0.3005674481391907,0.7966449856758118,0.31026482582092285,-0.7202969789505005,1.6923120021820068
598146091235,35.87904739379883,1030.451904296875,14.583502769470215,145.70421816735328,333.19540242307414,341.02733445751767,-19.510488510131836,-67.40335083007812,45.42051696777344,0.6141155362129211,-0.3316856026649475,0.821745753288269,0.16579517722129822,-0.6442442536354065,1.190180778503418
598146091314,35.93421173095703,1030.4521484375,11.958587646484375,151.989959298246,331.6573975012436,338.05445022504,-20.526506423950195,-70.31367492675781,44.407962799072266,0.6735147833824158,-0.5449292659759521,1.085425853729248,1.065599799156189,0.251895010471344,1.409481406211853
598146091389,35.98937225341797,1030.451904296875,15.860487937927246,155.80292606278394,333.9049497948117,339.9627504376282,-22.38252830505371,-72.090087890625,45.42544174194336,0.6817578673362732,-0.2323005497455597,0.7881156206130981,2.225327491760254,0.8826134204864502,-0.720605731010437
598146091468,35.860660552978516,1030.451416015625,15.199591636657715,151.0563953821103,337.685256302286,350.6248712461831,-25.20987892150879,-70.1279067993164,49.033531188964844,0.3408789336681366,-0.07285021990537643,0.8212583661079407,1.1831912994384766,0.70912766456604,-0.24352000653743744
598146091543,35.8422737121582,1030.448974609375,13.806856155395508,147.4961729376195,339.8456365990246,356.74184139089255,-26.688709259033203,-67.25360107421875,52.8032341003418,0.45895010232925415,0.021608538925647736,0.8173592686653137,1.2827622890472412,0.7247047424316406,-0.5400950908660889
598146091618,35.93421173095703,1030.44873046875,16.039714813232422,143.70559553318083,342.3912720083504,2.926499137163629,-28.193077087402344,-62.79465866088867,56.06995391845703,0.29820847511291504,0.1068287342786789,0.8000567555427551,0.5711042881011963,0.2766350507736206,-1.0608576536178589
598146091697,36.00775909423828,1030.452880859375,14.527494430541992,137.63361200255287,344.4117973516438,7.314367619896615,-29.237491607666016,-59.52986145019531,58.645023345947266,0.4056120216846466,0.11921115219593048,0.9691823720932007,0.4907754957675934,0.6837767958641052,-1.4927394390106201
598146091772,36.00775909423828,1030.449951171875,11.387304306030273,131.33136913462542,347.1256987400412,10.62136763109837,-30.024982452392578,-55.83858108520508,59.840145111083984,0.29384446144104004,0.23720835149288177,0.8480650186538696,0.6520439386367798,0.9913474321365356,-1.6033060550689697
598146091848,35.860660552978516,1030.4501953125,14.172776222229004,124.80695387337579,351.6983567101084,14.318031641996642,-31.137527465820312,-52.5464973449707,60.61106491088867,0.11879849433898926,0.25517499446868896,0.8071239590644836,-0.20897065103054047,0.11689380556344986,-2.2700655460357666
598146091926,35.8422737121582,1030.44189453125,13.933808326721191,115.39085508359622,355.7180967795979,14.763390711732738,-31.682003021240234,-49.46939468383789,61.27890396118164,-0.05455067753791809,0.16874083876609802,0.8707288503646851,-0.5431139469146729,0.4876890182495117,-2.053208351135254
598146092002,35.8422737121582,1030.442138671875,13.933808326721191,107.25409170649505,0.10226591448251506,12.451579144679462,-32.729270935058594,-47.872947692871094,61.846160888671875,-0.22955715656280518,0.06531120836734772,0.9747873544692993,-0.6274133324623108,-0.08346999436616898,-1.2041056156158447
598146092076,35.91582489013672,1030.4365234375,15.73727035522461,102.50412544066889,2.418447468583278,9.214525393220516,-33.179420471191406,-47.15274429321289,61.720359802246094,-0.012588618323206902,0.11921115219593048,0.8699977397918701,-0.4438483417034149,0.462032675743103,-1.2969571352005005
598146092159,35.89743423461914,1030.445068359375,13.1160888671875,98.56130311963065,5.4692534873202,6.644120302869617,-33.54608917236328,-46.927894592285156,62.082645416259766,-0.19351914525032043,0.04685896635055542,0.8049306869506836,-0.9646109342575073,-0.33697909116744995,-1.1509603261947632
598146092234,36.06291961669922,1030.44384765625,14.829937934875488,94.41289210457502,5.6506321489376505,1.5111547011512856,-33.624839782714844,-48.32632064819336,61.61212158203125,-0.17031659185886383,-0.1054157167673111,1.0035436153411865,-1.8864065408706665,-2.068171262741089,-1.112781286239624
598146092309,35.89743423461914,1030.44873046875,15.539375305175781,92.60452438973329,357.998702066107,353.0363284430377,-31.561830520629883,-50.35738754272461,59.882904052734375,0.053338102996349335,-0.26438358426094055,1.0927366018295288,-1.0834242105484009,-1.276184320449829,0.2689959406852722
598146092384,35.952598571777344,1030.45361328125,12.190088272094727,96.94437194684602,351.8072802981235,347.57176729567726,-26.66989517211914,-53.341190338134766,57.394371032714844,0.09043233096599579,-0.20648936927318573,0.9794176816940308,-0.18545232713222504,-0.9719734787940979,0.21096374094486237
598146092459,35.91582489013672,1030.45654296875,15.46843147277832,101.58095707244996,348.9013694855524,345.6213760423289,-23.353857040405273,-55.61466598510742,54.51455307006836,0.1597718596458435,-0.34953632950782776,1.026207447052002,-0.2474551498889923,-1.7807590961456299,0.3343585431575775
598146092538,36.00775909423828,1030.465576171875,11.977256774902344,107.91667469749964,342.1782332854958,342.97676265419307,-19.882953643798828,-57.61093521118164,51.197261810302734,0.2470523864030838,-0.39126840233802795,0.907283365726471,0.5506402850151062,-1.0767368078231812,1.5847996473312378
598146092613,35.952598571777344,1030.469970703125,12.71282958984375,118.22666766471548,338.9357717317615,341.6847077217328,-17.580745697021484,-59.135398864746094,47.86943435668945,0.393004834651947,-0.41297873854637146,0.9920898675918579,1.6905149221420288,-1.0248132944107056,2.013627052307129
598146092689,35.93421173095703,1030.459716796875,14.012219429016113,130.1711795418287,338.4912203318948,343.04209512115153,-17.027250289916992,-61.90738296508789,46.9298095703125,0.4014904499053955,-0.34109342098236084,0.8137037754058838,1.1663925647735596,-1.4496700763702393,2.201162576675415
598146092768,35.970985412597656,1030.453369140625,14.13170337677002,142.17944440465484,336.17203130676427,343.70867889546247,-18.314287185668945,-64.37130737304688,46.766483306884766,0.5789608359336853,-0.3160059154033661,0.8658549189567566,0.9547276496887207,-1.056578278541565,1.6739859580993652
598146092843,35.8422737121582,1030.456787109375,11.727087020874023,150.6126516521129,333.2365406524451,343.9563432623144,-19.37383460998535,-66.84481811523438,46.24912643432617,0.669150710105896,-0.24991001188755035,0.8636615872383118,1.7180038690567017,0.12300246208906174,1.283643126487732
598146092918,35.860660552978516,1030.464599609375,16.510181427001953,155.28664572380103,333.80363076866377,348.16629001292364,-20.61625862121582,-67.32315826416016,47.88340377807617,0.6533917188644409,-0.1823667734861374,0.8500145673751831,2.4119467735290527,-0.11645671725273132,0.31206193566322327
598146092997,35.787109375,1030.466064453125,11.562795639038086,155.32250421694357,333.4486675450455,357.2149165145069,-22.329561233520508,-65.47900390625,50.75320053100586,0.5690205693244934,0.11144179105758667,0.821745753288269,2.256481647491455,0.6083348989486694,-0.38951677083969116
598146093072,35.860660552978516,1030.46240234375,14.934486389160156,151.27011200124,335.30424894252496,7.835504223379417,-23.44978141784668,-61.736568450927734,53.415714263916016,0.36439621448516846,0.18355117738246918,0.6630991101264954,1.6987615823745728,0.494408518075943,-0.6133989095687866
598146093147,35.80550003051758,1030.4658203125,14.766462326049805,146.60473762828445,337.99802090966466,16.088788920173712,-24.790485382080078,-55.96160125732422,56.6655158996582,0.4230681359767914,0.32679882645606995,0.8419725894927979,0.9232680797576904,0.8691743612289429,-0.3821864128112793
598146093226,35.76872253417969,1030.472412109375,12.843515396118164,143.69332851343148,341.3110639307346,20.946018184273044,-26.188047409057617,-51.52743148803711,59.30831527709961,0.35857751965522766,0.43532708287239075,0.7349897027015686,1.1764718294143677,1.1776612997055054,-1.023594856262207
598146093301,35.80550003051758,1030.476318359375,14.307195663452148,139.67999131940203,346.9160845032817,26.512349150266633,-29.239967346191406,-46.355159759521484,60.70845413208008,0.20971572399139404,0.4775729775428772,0.8310062885284424,0.5753803253173828,-0.03307361155748367,-1.4982372522354126
598146093376,35.750335693359375,1030.47802734375,12.981670379638672,133.33372105208468,350.4437593888301,29.493941873936055,-31.063785552978516,-42.83081817626953,61.778446197509766,0.05745968222618103,0.5033090114593506,0.7488804459571838,0.4031163454055786,0.5225083231925964,-0.9948842525482178
598146093455,35.750335693359375,1030.483642578125,14.490155220031738,128.64517867746446,354.5791166317214,31.993292506351313,-33.04042053222656,-39.78395080566406,62.44282531738281,0.015031646937131882,0.5771179795265198,0.752535879611969,-0.1323070526123047,-0.14547282457351685,-1.2679409980773926
598146093531,35.73194885253906,1030.488525390625,14.490155220031738,123.15210832050843,357.30173547593375,32.38626402515341,-34.31871795654297,-37.70458984375,62.49163818359375,-0.08367728441953659,0.513263463973999,0.8660986423492432,-0.12100604921579361,-0.0975198969244957,-0.9863321781158447
598146093608,35.80550003051758,1030.480712890625,14.822470664978027,118.5658548588983,359.5588012892008,31.602096836733416,-34.796993255615234,-36.74493408203125,62.88706588745117,-0.0602278970181942,0.5406990647315979,0.6652923822402954,-0.7016334533691406,0.08879400789737701,-1.1518765687942505
598146093691,35.82388687133789,1030.47021484375,14.841139793395996,114.07603000799043,2.514975330471895,28.621393745203388,-35.53511428833008,-36.767059326171875,63.13932800292969,-0.0007405069191008806,0.2644011080265045,0.8558633327484131,-2.4328255653381348,-1.431038737297058,-1.9414199590682983
598146093771,35.80550003051758,1030.463623046875,15.03903579711914,105.27104190363022,359.8621529887687,17.7363876423317,-34.668052673339844,-39.17244338989258,63.10953140258789,-0.03974054008722305,0.1699548065662384,1.196307897567749,-0.6518479585647583,0.6904962658882141,-1.073991298675537
598146093846,35.787109375,1030.4609375,14.251187324523926,101.90184618984634,2.2590137778822554,13.400146425100724,-32.9660758972168,-41.64067459106445,61.97024154663086,-0.20931662619113922,0.20200341939926147,0.7742248773574829,-0.886725664138794,-0.37760162353515625,-0.5129115581512451
598146093921,35.87904739379883,1030.46337890625,11.48065185546875,100.90361404264897,4.049278503215706,9.480246218917046,-32.7890625,-43.37493896484375,61.82868194580078,-0.015303810127079487,0.1235814243555069,0.9092329144477844,-0.7947903871536255,0.2204354703426361,-0.2975815534591675
598146094000,35.8422737121582,1030.46875,14.478954315185547,100.63568621207688,2.509717578914866,3.925035227779058,-31.658679962158203,-46.51594924926758,61.42863464355469,-0.04640510305762291,-0.03304794803261757,0.9735689163208008,-1.3897731304168701,-0.8174245357513428,-0.2703980505466461
598146094075,35.89743423461914,1030.465087890625,15.053971290588379,100.82704762205313,359.46675101651954,357.34841683070306,-30.006465911865234,-49.88823699951172,60.48717498779297,-0.09774692356586456,-0.12591992318630219,1.096879482269287,-0.7468374967575073,-0.7874921560287476,0.2842675745487213
598146094150,35.93421173095703,1030.459228515625,12.828580856323242,103.57869861221948,358.2520373042391,353.21215159953897,-28.644615173339844,-53.299705505371094,59.29714584350586,0.03491221368312836,-0.1541433483362198,0.9331152439117432,-0.5654104948043823,-0.7105231285095215,0.45958590507507324
598146094229,35.91582489013672,1030.4560546875,16.20400619506836,107.55455855827307,356.64139577518466,350.61424688692915,-27.60996437072754,-55.852481842041016,57.85799026489258,0.03176041692495346,-0.1908096820116043,0.9721066951751709,-0.647571861743927,-1.2135707139968872,0.0524442121386528
598146094304,35.82388687133789,1030.468994140625,16.106924057006836,110.13565289467505,352.3953143356583,347.4764067558065,-26.05537986755371,-58.67491912841797,56.18642044067383,0.023274807259440422,-0.24146711826324463,0.955535352230072,-0.3647412955760956,-1.0187046527862549,0.7173710465431213
598146094379,35.860660552978516,1030.469970703125,14.5610990524292,115.19104472961666,349.7756183313884,344.81893126768995,-23.91942596435547,-61.115478515625,54.449188232421875,0.1670452356338501,-0.3748650550842285,0.9723504185676575,0.11692596226930618,-0.45915213227272034,1.681621789932251
598146094458,35.952598571777344,1030.470458984375,15.412423133850098,123.68079228302409,348.9256064118222,343.1813882915375,-22.949893951416016,-63.69548797607422,52.52497482299805,0.15177114307880402,-0.3396460711956024,0.8931489586830139,0.2375718504190445,-1.4313441514968872,1.3685534000396729
598146094533,35.89743423461914,1030.470703125,13.108621597290039,131.5066454491063,346.3221167389054,342.08261746730483,-23.0909423828125,-65.60456085205078,51.422481536865234,0.21892866492271423,-0.41032522916793823,0.974299967288971,0.6602905988693237,-0.5403971672058105,2.14282488822937
598146094612,35.750335693359375,1030.469970703125,12.600814819335938,141.40960012292436,347.2107456942652,341.6388600769291,-24.3773193359375,-68.4928970336914,50.42274475097656,0.4094911515712738,-0.3881324827671051,0.8563507199287415,0.6847252249717712,0.05611271411180496,2.189556121826172
598146094687,35.89743423461914,1030.46923828125,14.62830924987793,149.77038004442363,348.6975489567564,342.3831936021096,-27.314685821533203,-70.4675521850586,50.87796401977539,0.43325087428092957,-0.27813345193862915,0.856594443321228,0.5149046778678894,-0.4701476991176605,0.9088773131370544
598146094762,35.82388687133789,1030.4599609375,13.668703079223633,153.20541878180643,346.02441269864664,343.38896627815063,-28.97784423828125,-71.44058990478516,51.10288619995117,0.27978259325027466,-0.33578646183013916,1.0037872791290283,0.919297456741333,-0.6601267457008362,0.8068627715110779
598146094841,35.8422737121582,1030.460205078125,14.251187324523926,155.8228838755387,344.03237351306046,345.82179086804996,-29.92062759399414,-71.22181701660156,51.82054901123047,0.37991276383399963,-0.30756303668022156,0.9891654849052429,1.4864859580993652,-0.2493199110031128,0.9467509388923645
598146094916,35.76872253417969,1030.468994140625,15.214527130126953,158.57741720553483,343.7593810972188,349.8651928472585,-30.914697647094727,-70.01887512207031,54.1110954284668,0.4829522669315338,-0.07212653756141663,0.9582160115242004,1.2962013483047485,-0.49885836243629456,0.14743375778198242
598146094991,35.750335693359375,1030.47119140625,14.478954315185547,157.79944499869202,341.7411950937161,354.9896238074438,-31.63629913330078,-67.7843246459961,55.961124420166016,0.4077940285205841,-0.0919070690870285,1.0405855178833008,1.5182509422302246,-0.5187114477157593,-0.46098801493644714
598146095070,35.87904739379883,1030.4755859375,16.342159271240234,154.03691235098543,340.2244559658664,2.125522212865999,-31.192049026489258,-63.44306945800781,58.34440994262695,0.45701053738594055,0.12430980056524277,0.8134600520133972,1.84170401096344,0.6694214344024658,-0.45671194791793823
598146095145,35.87904739379883,1030.474853515625,16.342159271240234,149.79080231004195,342.2710692166947,10.756631843647655,-31.440900802612305,-58.454994201660156,61.01646423339844,0.3086336553096771,0.2716848850250244,0.6852754950523376,0.986187219619751,0.024042289704084396,-0.9423498511314392
598146095222,35.860660552978516,1030.461669921875,15.386285781860352,143.52671287881822,342.7045130214237,17.02430797795931,-31.71591567993164,-52.753807067871094,62.59644317626953,0.29820847511291504,0.3683163523674011,0.7732501029968262,0.30537790060043335,-0.40783944725990295,-1.3067309856414795
598146095298,35.73194885253906,1030.464599609375,12.653087615966797,136.2503347710852,343.1859559805449,20.404814485008743,-31.552263259887695,-48.840057373046875,63.33903503417969,0.3260897397994995,0.36758795380592346,0.856594443321228,0.15938109159469604,-0.27222734689712524,-1.7080694437026978
598146095373,35.87904739379883,1030.472412109375,13.664968490600586,128.90786775294316,344.7914004826929,22.7421974265409,-31.44778823852539,-45.793758392333984,63.49610137939453,0.23420274257659912,0.3925955891609192,0.7493678331375122,-0.232794389128685,-0.1274522840976715,-1.2761876583099365
598146095451,35.8422737121582,1030.4716796875,14.210114479064941,122.82349425916077,346.8079199200381,23.56660808955061,-31.46324920654297,-43.78915023803711,62.740211486816406,0.14667977392673492,0.3690447211265564,0.8502582907676697,-0.8613747358322144,-0.7813835144042969,-1.7526625394821167
598146095526,35.860660552978516,1030.46337890625,14.068227767944336,115.12879438552118,347.81130202986964,21.75519581788633,-30.844562530517578,-43.28595733642578,62.08177947998047,0.09431146085262299,0.2779974937438965,0.9896529316902161,-0.5327292084693909,-0.006500971969217062,-1.3366633653640747
598146095606,35.860660552978516,1030.453125,15.83061695098877,110.08661213643435,350.513522087239,19.96762261397269,-29.760108947753906,-43.35597610473633,61.234004974365234,0.09431146085262299,0.300819993019104,0.8578128814697266,-0.21080324053764343,0.2922121286392212,-0.5694165825843811
598146095681,35.80550003051758,1030.453125,14.079429626464844,108.47068500145772,352.73519308649463,19.390449430991808,-29.982234954833984,-43.05295181274414,61.019142150878906,0.1684999167919159,0.34743615984916687,0.8163844347000122,-0.5418922305107117,-0.22549617290496826,-1.2044110298156738
598146095756,35.91582489013672,1030.44921875,15.636455535888672,104.48764652658645,353.49965517915916,17.941704836329574,-29.728429794311523,-43.14905548095703,61.026798248291016,0.045822277665138245,0.23138132691383362,0.9048464298248291,-1.0705959796905518,-0.4313577711582184,-1.1402701139450073
598146095835,35.87904739379883,1030.455078125,14.624574661254883,100.1538368567,353.4017593584458,13.868416510633981,-28.920551300048828,-43.95541000366211,60.69515609741211,0.023517252877354622,0.16728408634662628,0.9996444582939148,-0.78074049949646,-0.28139033913612366,-0.47534334659576416
598146095910,35.82388687133789,1030.4541015625,14.460284233093262,99.1806646735674,352.9447676227796,10.326563006142278,-27.69364356994629,-45.14897918701172,59.802825927734375,0.20195744931697845,0.1415480673313141,0.9550479650497437,-1.1542845964431763,-1.3913325071334839,-1.00374174118042
598146095985,35.93421173095703,1030.450439453125,16.540054321289062,97.16301996255648,348.9540319516005,6.590996799052551,-25.281618118286133,-46.483489990234375,58.40596389770508,-0.011601275764405727,0.04273149371147156,0.9513924717903137,-0.7957066893577576,-0.7749693989753723,0.2961794435977936
598146096064,35.91582489013672,1030.448974609375,14.781397819519043,99.37380876291702,346.57267283709723,2.810741091110253,-22.463239669799805,-48.1566162109375,55.94478225708008,0.17989486455917358,0.03884681314229965,0.953342080116272,-0.6084765195846558,-0.44785112142562866,0.7344752550125122
598146096139,35.860660552978516,1030.43603515625,14.396808624267578,104.70900612739739,345.8545552854985,359.531879271494,-21.173128128051758,-50.727455139160156,54.7193489074707,0.19419918954372406,-0.10420958697795868,0.8439221382141113,-0.8418270349502563,-0.33697909116744995,0.8905513286590576
598146096214,35.93421173095703,1030.4287109375,12.768838882446289,110.07985024915604,344.2388535467645,355.16931669299674,-20.540916442871094,-53.68080520629883,53.764373779296875,0.2647509276866913,-0.12881462275981903,0.935552179813385,-0.8497682809829712,-0.5205440521240234,0.7674620151519775
598146096293,35.80550003051758,1030.4326171875,11.801765441894531,115.05837513517834,341.72446796043874,350.34296884856917,-19.680803298950195,-57.39570236206055,51.840484619140625,0.2599020302295685,-0.27137911319732666,0.9618715047836304,-0.5125706791877747,-0.6998329758644104,1.2717312574386597
598146096368,35.80550003051758,1030.4306640625,15.035301208496094,122.45038834555966,339.64240090517626,345.50331280743063,-18.75153160095215,-60.74713897705078,49.550315856933594,0.45288896560668945,-0.36280375719070435,0.9255606532096863,0.13738994300365448,-0.24596014618873596,1.8218153715133667
598146096446,35.8422737121582,1030.427001953125,13.325185775756836,132.40545736274495,339.73661141194555,342.1393592638347,-18.892440795898438,-64.61638641357422,48.09991455078125,0.4121580421924591,-0.3599090576171875,0.8144348859786987,-0.08740846067667007,-0.8720970153808594,1.5460097789764404
598146096522,35.952598571777344,1030.432373046875,15.599117279052734,140.595086404022,338.21007608527873,338.77730963547,-20.131345748901367,-68.01699829101562,46.94021224975586,0.5013781785964966,-0.4595353305339813,0.9289723634719849,-0.018991554155945778,-0.7960442900657654,1.4494930505752563
598146096597,35.952598571777344,1030.431884765625,15.599117279052734,147.43299368779688,336.8744786968596,335.69408881959265,-21.486351013183594,-71.17183685302734,44.898841857910156,0.5149551630020142,-0.48389914631843567,0.9828293919563293,0.9360962510108948,-0.724573016166687,0.9079610109329224
598146096677,35.91582489013672,1030.43359375,14.583502769470215,152.51326107169567,336.04890690169105,336.7353665264867,-22.830848693847656,-73.33177947998047,44.134185791015625,0.5859917402267456,-0.39947009086608887,0.8390482664108276,1.1043896675109863,-0.07797220349311829,0.8264104723930359
598146096753,35.860660552978516,1030.433837890625,15.8119478225708,154.9129524139313,336.10764994364774,339.8867901963212,-24.192251205444336,-73.68419647216797,46.26962661743164,0.5937500596046448,-0.3307207226753235,0.8758464455604553,1.1517317295074463,-0.2801686227321625,-0.1341751217842102
598146096827,35.860660552978516,1030.43212890625,15.673794746398926,153.74923844352284,333.98752507432994,344.32754013804254,-24.93636703491211,-72.8764877319336,47.74740982055664,0.5406544208526611,-0.3249312937259674,0.981610894203186,1.5857515335083008,-0.3290378153324127,-0.40570470690727234
598146096902,35.82388687133789,1030.435791015625,15.251866340637207,151.11553115994428,333.2233378967795,351.1512073311716,-25.206327438354492,-69.73478698730469,50.33622741699219,0.5641716718673706,-0.14449431002140045,0.8117542266845703,1.9980854988098145,0.3065674602985382,-0.5104681253433228
598146096981,35.82388687133789,1030.43798828125,15.431092262268066,147.19910068985897,334.2989765778406,0.9130504034589015,-25.412321090698242,-65.80768585205078,53.14012908935547,0.530471682548523,0.13280753791332245,0.6660234928131104,1.1905217170715332,0.1645413041114807,-1.3268895149230957
598146097056,35.87904739379883,1030.433349609375,14.852341651916504,139.51542474153976,334.8009698686272,9.282611280188142,-25.484920501708984,-59.83575439453125,55.5792121887207,0.36391130089759827,0.20540252327919006,0.7717879414558411,0.038429778069257736,-0.5571959614753723,-1.6689740419387817
598146097135,35.8422737121582,1030.426025390625,14.030888557434082,129.38580340992561,334.60629581690347,14.30336637207498,-24.781461715698242,-55.518211364746094,56.500362396240234,0.3883983790874481,0.1850079447031021,0.9184934496879578,0.47642016410827637,-0.009249866008758545,-2.2340245246887207
598146097210,35.73194885253906,1030.42578125,13.299049377441406,119.94159156152227,337.4398407752183,19.56291683017651,-23.569786071777344,-50.860191345214844,56.423465728759766,0.23323297500610352,0.32631322741508484,0.7851912379264832,0.3325614035129547,0.6773626804351807,-1.0220677852630615
598146097285,35.787109375,1030.430419921875,14.079429626464844,115.67352929258637,342.0598234184972,23.171724117780908,-23.633052825927734,-46.728599548339844,57.134769439697266,0.23517253994941711,0.4197883605957031,0.7030653953552246,0.002999595832079649,0.04847690090537071,-1.3736207485198975
598146097364,35.73194885253906,1030.432861328125,14.661913871765137,110.00958809316413,345.5488104050394,25.676074448668615,-24.594682693481445,-43.12451934814453,58.01028060913086,0.156620055437088,0.40400683879852295,0.6918553709983826,-0.3848998248577118,0.07199521362781525,-1.5376380681991577
598146097439,35.787109375,1030.438720703125,16.088254928588867,105.04928615184743,349.3843535061052,25.31834670598378,-25.58052635192871,-40.74382019042969,58.29454803466797,0.156620055437088,0.34258031845092773,0.7929895520210266,-0.9737739562988281,-0.07033638656139374,-1.3788130283355713
598146097515,35.87904739379883,1030.438232421875,17.59674072265625,101.05069533623603,352.02300243154826,22.251753985640843,-26.707788467407227,-39.69319152832031,58.98187255859375,0.035639550536870956,0.2716848850250244,0.7488804459571838,-1.3818318843841553,0.14255014061927795,-1.3397176265716553
598146097594,35.65840148925781,1030.434326171875,13.1160888671875,96.74560661180948,354.85404967506093,16.814489689298398,-27.499231338500977,-40.3946533203125,58.69239044189453,-0.006417726632207632,0.14009131491184235,0.8751153349876404,-2.0055253505706787,-0.8107050657272339,-0.9698387384414673
598146097669,35.80550003051758,1030.430908203125,15.270535469055176,93.78028681383762,352.70894723083524,8.31179978118744,-26.60439682006836,-42.81538009643555,58.258094787597656,0.13189058005809784,-0.006271873135119677,1.1989885568618774,-1.2278938293457031,-0.47839438915252686,-0.2813936471939087
598146097744,35.8422737121582,1030.427734375,13.821791648864746,94.46424146675518,350.20496658393637,2.3336137443273692,-24.939876556396484,-45.71390914916992,57.31121826171875,-0.05775953829288483,-0.007960454560816288,0.908745527267456,-0.18270343542099,-0.4111992120742798,0.23264946043491364
598146097822,35.80550003051758,1030.421875,15.968770980834961,96.45574021362332,348.68022930456857,0.38336760581839957,-23.246849060058594,-47.5467414855957,55.58037567138672,0.11540426313877106,-0.002653484931215644,0.9935520887374878,-0.8351075053215027,-1.2276206016540527,0.49837586283683777
598146097898,35.73194885253906,1030.412109375,15.890358924865723,100.94769608355223,343.63554464492455,356.0430434562481,-20.62728500366211,-49.358619689941406,53.25104904174805,0.241233691573143,-0.1411171555519104,0.9067959785461426,-0.37146079540252686,-0.13539353013038635,1.2518781423568726
598146097973,35.787109375,1030.41455078125,12.078071594238281,108.07233470868424,342.0810806747416,352.5358062042436,-18.759296417236328,-52.6579475402832,51.636802673339844,0.36269909143447876,-0.18212555348873138,0.841728925704956,-1.0537972450256348,-1.2541931867599487,0.7900639772415161
598146098051,35.787109375,1030.4150390625,13.836727142333984,114.71338228020099,337.16117759481824,346.8415705545314,-17.447370529174805,-55.931297302246094,50.069210052490234,0.43616020679473877,-0.42021551728248596,0.9752748012542725,-0.8271662592887878,-1.3296350240707397,0.9094881415367126
598146098127,35.787109375,1030.415771484375,13.836727142333984,121.63068368288809,332.74574887189743,341.0107729563277,-15.748297691345215,-59.472755432128906,46.13392639160156,0.341848760843277,-0.4576055407524109,0.8288130164146423,0.1257835179567337,-1.6020809412002563,1.5157718658447266
598146098205,35.76872253417969,1030.40966796875,14.602171897888184,132.3995014377887,330.26840169389334,335.96600548064,-14.435425758361816,-62.78758239746094,42.55321502685547,0.6230859756469727,-0.4740088880062103,0.8541574478149414,0.18778632581233978,-0.7490076422691345,1.7650049924850464
598146098280,35.860660552978516,1030.412109375,14.269856452941895,142.30736018743085,330.12675040069644,332.13567637523187,-14.918692588806152,-67.11489868164062,39.766029357910156,0.5326536297798157,-0.5068156123161316,0.8029811382293701,0.8795912265777588,-0.8452189564704895,1.2390499114990234
598146098356,35.750335693359375,1030.415283203125,17.073997497558594,149.67580924517563,328.9430239760199,331.1872807033135,-16.069164276123047,-70.20674896240234,37.98427963256836,0.5828399658203125,-0.4916183650493622,0.7910399436950684,1.4092113971710205,-0.32170745730400085,1.6391667127609253
598146098434,35.80550003051758,1030.421142578125,14.44908332824707,157.40632663082278,330.1129602487622,332.03969343437296,-18.40325927734375,-72.6691665649414,38.84823226928711,0.7964348196983337,-0.4522985517978668,0.9063085317611694,2.270226001739502,0.4479827582836151,1.2173641920089722
598146098510,35.80550003051758,1030.423583984375,15.345212936401367,160.7811640808611,332.9273089604147,338.39104194733824,-20.663658142089844,-73.5707015991211,41.78016662597656,0.6946075558662415,-0.2880237400531769,0.7783676981925964,2.149580240249634,0.6443759799003601,-0.3986797630786896
598146098585,35.80550003051758,1030.42724609375,15.233197212219238,156.87444613977553,335.0795988980814,347.8881741014308,-23.47545051574707,-71.15272521972656,47.22908020019531,0.5231982469558716,-0.17368264496326447,0.8487961292266846,1.7180038690567017,0.727759063243866,-0.7083884477615356
598146098664,35.80550003051758,1030.43017578125,16.730480194091797,150.89494337050954,336.6276749338431,356.9727442600779,-25.033309936523438,-67.34100341796875,51.131717681884766,0.4274321496486664,-0.020745426416397095,0.7379140853881836,2.3270363807678223,1.4919514656066895,-0.796658456325531
598146098739,35.76872253417969,1030.429931640625,13.022741317749023,145.64498676687094,341.9270582014105,7.361452382713744,-27.045780181884766,-61.075809478759766,55.8641471862793,0.4017328917980194,0.2940218150615692,0.5887715816497803,1.1419578790664673,0.9333152174949646,-1.2483932971954346
598146098814,35.787109375,1030.435791015625,13.810589790344238,139.28207815873543,345.5198760161679,14.010100247229433,-29.696754455566406,-55.266448974609375,59.057525634765625,0.4014904499053955,0.24983355402946472,0.8375861048698425,-0.42766040563583374,-0.5852957963943481,-2.4151461124420166
598146098893,35.71356201171875,1030.4375,13.429734230041504,127.63100486874428,345.0782086636782,15.568475354485896,-30.00615119934082,-51.220428466796875,60.05162048339844,0.14983157813549042,0.15635842084884644,0.9996444582939148,-0.12039518356323242,0.2467026710510254,-2.1384241580963135
598146098968,35.69517517089844,1030.439697265625,13.530549049377441,118.73005260654541,348.65245946295056,16.37330386514518,-29.212871551513672,-48.370018005371094,60.188899993896484,0.054307885468006134,0.24182139337062836,0.9016783237457275,0.13005957007408142,0.8493212461471558,-1.3610979318618774
598146099043,35.76872253417969,1030.44482421875,14.762728691101074,113.70612745311004,354.0589738207628,17.450414451972435,-29.90642547607422,-45.63459777832031,61.40010452270508,-0.08071526139974594,0.2901371121406555,0.8161407113075256,-0.4911903738975525,-0.77252596616745,-1.8662835359573364
598146099122,35.80550003051758,1030.4482421875,14.859808921813965,105.78379786500142,354.9179234697448,16.455093672908788,-30.19708251953125,-43.837852478027344,61.74662780761719,-0.08046842366456985,0.25687456130981445,0.8539137840270996,-0.7196539640426636,-1.3559023141860962,-0.8320886492729187
598146099197,35.787109375,1030.450439453125,14.71792221069336,101.77465440712236,351.46903054740426,13.52258695748331,-28.15022850036621,-43.2154541015625,60.19720458984375,0.13358770310878754,0.14956021308898926,0.9287286400794983,-1.2089569568634033,-1.2428922653198242,-0.38035380840301514
598146099276,35.8422737121582,1030.451416015625,15.998641967773438,100.68474063069591,346.7758684035841,8.449693616567181,-25.550521850585938,-44.23008728027344,58.285987854003906,0.05236831679940224,0.05317157506942749,0.7827543020248413,-1.4135968685150146,-1.0837618112564087,-0.09752320498228073
598146099351,35.787109375,1030.45263671875,14.437881469726562,100.70556587747528,342.5264773105181,2.4331150863824687,-21.962265014648438,-46.54044723510742,55.15785217285156,0.2528710663318634,-0.08105190098285675,1.0574005842208862,-1.3344898223876953,-1.4304277896881104,0.3615420460700989
598146099426,35.73194885253906,1030.453369140625,14.63577651977539,104.12208797201819,336.7659708966102,355.30293867193745,-18.537940979003906,-49.601627349853516,51.09691619873047,0.3976112902164459,-0.10710430145263672,0.8799893260002136,-0.459119975566864,-0.16135531663894653,0.6782756447792053
598146099505,35.750335693359375,1030.459228515625,11.865240097045898,109.79623347406043,334.4578962968066,350.604342258859,-15.61412239074707,-52.97023391723633,48.173057556152344,0.43834221363067627,-0.19877015054225922,0.8968044519424438,-0.886114776134491,-1.7282246351242065,0.33344224095344543
598146099580,35.750335693359375,1030.4609375,11.865240097045898,115.34565289166908,329.2231983357738,344.94677533347965,-13.880242347717285,-56.07676696777344,45.097442626953125,0.38282209634780884,-0.3365101218223572,0.9279976487159729,-0.13963744044303894,-0.9056946039199829,1.0875554084777832
598146099657,35.750335693359375,1030.4560546875,12.664289474487305,124.02357215671036,327.33312789808036,339.1258097925861,-12.435235023498535,-59.38543701171875,41.105712890625,0.5227133631706238,-0.41129016876220703,0.7798299193382263,-0.076107457280159,-1.1937175989151,1.5661683082580566
598146099733,35.750335693359375,1030.45947265625,15.550576210021973,134.97644984936446,326.41433085093024,333.4027772115595,-12.692584991455078,-62.99043273925781,38.57924270629883,0.5556859970092773,-0.4713554084300995,0.7851912379264832,0.2668933868408203,-0.4475456774234772,1.874044418334961
598146099808,35.69517517089844,1030.4599609375,14.747793197631836,144.70878639771564,327.770253174772,329.127531291164,-14.025035858154297,-67.40937042236328,37.29433059692383,0.6613925099372864,-0.5478240251541138,0.8273507952690125,0.9247952699661255,0.2821328341960907,1.7842471599578857
598146099887,35.76872253417969,1030.46435546875,13.97488021850586,152.44396197237674,330.4625566512401,328.4407421097409,-15.965152740478516,-70.96534729003906,36.93563461303711,0.6972744464874268,-0.435171514749527,0.7452249526977539,1.4724359512329102,0.5634363293647766,1.3092994689941406
598146099962,35.6400146484375,1030.47412109375,14.348268508911133,156.08169340356883,333.85516454595154,331.82712599457113,-19.25802993774414,-73.49221801757812,39.20175552368164,0.5692629814147949,-0.46821945905685425,0.7578971982002258,1.1193559169769287,-0.18456819653511047,0.4314860999584198
598146100037,35.73194885253906,1030.4794921875,13.302783012390137,156.88186372521417,334.6473093953221,335.6501433824728,-21.71211051940918,-74.0265121459961,41.211883544921875,0.5428363680839539,-0.353154718875885,0.9092329144477844,1.3087241649627686,0.35971274971961975,0.07962771505117416
598146100116,35.73194885253906,1030.469482421875,14.523760795593262,155.19483432097772,336.29926919326516,341.1777386381359,-23.94072151184082,-73.4585952758789,45.33037185668945,0.4875587522983551,-0.2740326225757599,0.8524515628814697,1.1914379596710205,0.35604754090309143,-0.19312362372875214
598146100191,35.73194885253906,1030.46826171875,15.449761390686035,152.26281169520965,337.24166795909224,346.8869776521337,-25.403764724731445,-71.5418701171875,49.17533874511719,0.45410120487213135,-0.20721304416656494,0.8726783990859985,1.2607711553573608,0.47547170519828796,-0.3910439610481262
598146100270,35.82388687133789,1030.468994140625,14.310929298400879,148.23450272651954,338.3519988784951,353.4244082657336,-26.302385330200195,-68.12904357910156,52.75766372680664,0.43179619312286377,-0.005065743811428547,0.8548884987831116,1.3637019395828247,0.5026552081108093,-1.065439224243164
598146100345,35.76872253417969,1030.466064453125,14.684317588806152,141.73540014633397,339.81122439843875,1.1093416091903112,-27.064254760742188,-64.30975341796875,55.21079635620117,0.3466976583003998,0.041517529636621475,0.846359133720398,0.8774532079696655,0.21921372413635254,-1.603916883468628
598146100422,35.76872253417969,1030.470947265625,16.32722282409668,133.56175374771473,341.39288618189676,7.523451663221753,-27.032821655273438,-59.32298278808594,57.02079772949219,0.2599020302295685,0.15563005208969116,0.7988382577896118,0.699996829032898,0.4443175792694092,-1.3281112909317017
598146100498,35.71356201171875,1030.4716796875,16.99932098388672,127.00139803105252,344.1646486640742,12.428808147760286,-27.237878799438477,-54.74326705932617,58.64882278442383,0.3202710747718811,0.2578457295894623,0.8005441427230835,0.15815936028957367,0.2610580027103424,-1.7685450315475464
598146100574,35.76872253417969,1030.47021484375,14.516292572021484,119.77736649311849,346.7753638233592,15.257288520805531,-27.641002655029297,-50.74040603637695,59.906211853027344,0.12316253036260605,0.20370297133922577,0.8704851269721985,-0.1717078685760498,0.27419158816337585,-1.9343949556350708
598146100650,35.6400146484375,1030.47412109375,15.322810173034668,112.35353143139407,350.5561253921869,15.802723522260655,-28.34662628173828,-48.063594818115234,60.135128021240234,-0.03431015461683273,0.2532326579093933,0.8651238083839417,-0.3024330139160156,0.19813889265060425,-1.253891110420227
598146100726,35.676788330078125,1030.466552734375,13.95247745513916,107.57497399370224,353.78714253708006,15.238505500587996,-28.58057975769043,-46.183719635009766,59.63010025024414,-0.05775953829288483,0.2287106066942215,0.7659391760826111,-0.981715202331543,-0.8336125016212463,-0.7175514101982117
598146100806,35.73194885253906,1030.458740234375,14.44908332824707,104.21745790339908,351.95870388447537,11.584277455003011,-28.12359619140625,-46.2266960144043,59.2701416015625,0.09625103324651718,0.11484088748693466,0.9608966708183289,-1.5342427492141724,-1.5461868047714233,-0.5489526391029358
598146100882,35.65840148925781,1030.457275390625,12.231161117553711,102.43237430343791,345.6070463054502,5.428887069325425,-25.38789939880371,-47.549129486083984,57.521358489990234,0.19007760286331177,-0.0,1.0013504028320312,-1.064181923866272,-1.2651888132095337,0.1532369703054428
598146100959,35.750335693359375,1030.454345703125,14.426679611206055,104.50523426369922,339.9450619552252,0.19345008716052242,-22.14173698425293,-49.4036865234375,54.49732971191406,0.38233721256256104,-0.0639248639345169,0.9109388589859009,-0.7495864033699036,-1.077653169631958,0.5521320104598999
598146101034,35.750335693359375,1030.450439453125,14.81126880645752,109.34018857336785,336.13727418162534,355.6508591167478,-18.447717666625977,-52.490478515625,50.92884063720703,0.37142714858055115,-0.13918735086917877,0.880476713180542,-0.8390781283378601,-1.9261449575424194,-0.023608509451150894
598146101110,35.787109375,1030.450927734375,14.81126880645752,112.56737099392883,330.20908833114095,350.9288394236844,-15.944718360900879,-55.44470977783203,47.41735076904297,0.4167645275592804,-0.2622125446796417,0.9669890999794006,-0.5803766846656799,-1.1479026079177856,0.9455292224884033
598146101187,35.750335693359375,1030.45263671875,15.961302757263184,119.58043847896867,326.1088643006798,344.7670593960383,-13.039200782775879,-57.9398307800293,43.1917724609375,0.5030752420425415,-0.30611565709114075,0.8236953020095825,0.36096662282943726,0.22684955596923828,1.834032654762268
598146101266,35.71356201171875,1030.4404296875,13.048879623413086,129.05578232960895,327.9826481522973,340.7588072778459,-12.376873970031738,-61.110076904296875,41.404518127441406,0.6121759414672852,-0.30659809708595276,0.7883592844009399,0.07813601940870285,-0.7221295833587646,1.1177932024002075
598146101346,35.566463470458984,1030.436279296875,12.563474655151367,136.91185225257928,327.46717719073104,337.2089189095693,-13.741242408752441,-64.98997497558594,40.31000900268555,0.4938623309135437,-0.4296233355998993,0.8434348106384277,0.5793509483337402,0.14926967024803162,1.60617995262146
598146101422,35.60323715209961,1030.445556640625,15.46843147277832,143.8706675450417,330.0682464153607,335.3256530478365,-15.040453910827637,-68.87911987304688,40.00799560546875,0.4936198890209198,-0.45567572116851807,0.8119979500770569,0.882340133190155,-0.3797396421432495,1.8489989042282104
598146101501,35.65840148925781,1030.439208984375,13.485742568969727,152.31228958555724,332.49834063713934,334.23674330921807,-18.173686981201172,-71.3644027709961,40.38541793823242,0.5944774150848389,-0.4161146581172943,0.7888467311859131,0.8279731273651123,-0.5318450331687927,1.3172407150268555
598146101578,35.62162780761719,1030.435791015625,15.531907081604004,157.79930839490862,333.18946186604353,334.81423409599535,-21.311429977416992,-73.12773895263672,41.771141052246094,0.6606651544570923,-0.4226277768611908,0.9316530227661133,0.8643195629119873,-0.19128769636154175,0.4824933409690857
598146101654,35.76872253417969,1030.442626953125,14.714188575744629,158.92120794721825,332.7468485323538,337.46618310729974,-23.652055740356445,-74.00127410888672,42.92209243774414,0.5367752313613892,-0.3939218819141388,0.8989976644515991,1.6495869159698486,0.4119417071342468,0.2341766208410263
598146101729,35.69517517089844,1030.439697265625,16.704345703125,157.72640295570793,334.3479814775882,343.79446607143785,-25.00526237487793,-73.09629821777344,46.43858337402344,0.5896284580230713,-0.2257874310016632,0.7907962799072266,1.7018158435821533,0.33436182141304016,-0.10790791362524033
598146101805,35.676788330078125,1030.43896484375,12.87338638305664,155.1401518264826,334.89319962053713,351.2245780770095,-26.15048599243164,-69.96346282958984,50.25407409667969,0.5755665898323059,-0.053069695830345154,0.8061491847038269,1.3487358093261719,0.5035715103149414,-0.8632428050041199
598146101882,35.6400146484375,1030.42626953125,15.37881851196289,149.1861120024424,335.3298963028584,358.9995453732797,-26.80587387084961,-65.98741912841797,53.427486419677734,0.45773789286613464,0.06045534834265709,0.7988382577896118,1.2412234544754028,0.8267192244529724,-1.3241406679153442
598146101968,35.65840148925781,1030.4287109375,14.497623443603516,141.10082093092643,338.41683444919147,7.2783784993861715,-27.443649291992188,-61.188621520996094,56.52119827270508,0.39227747917175293,0.16121427714824677,0.7150065898895264,0.6529602408409119,0.49593570828437805,-1.671112060546875
598146102044,35.676788330078125,1030.42578125,14.210114479064941,133.083285335977,341.4503127048909,12.497805864982109,-28.065397262573242,-56.32501983642578,58.981563568115234,0.3437883257865906,0.24400652945041656,0.8068802356719971,-0.051978275179862976,0.14957508444786072,-2.3794105052948
598146102120,35.676788330078125,1030.426513671875,13.653767585754395,122.54632518264165,344.6702841532356,15.215077951734852,-28.51955795288086,-52.33183670043945,60.10752487182617,0.11370714008808136,0.1583007574081421,0.8773086667060852,-0.353745698928833,0.42538073658943176,-2.212949752807617
598146102199,35.6400146484375,1030.432373046875,12.862184524536133,113.62962250421673,349.55140029640984,15.532953248159952,-28.78887176513672,-49.18572235107422,60.81991195678711,0.0014546754537150264,0.2024890035390854,0.7732501029968262,-0.6814749240875244,-0.23710259795188904,-1.4481462240219116
598146102281,35.73194885253906,1030.43212890625,11.626272201538086,106.9074596061169,351.86135063691427,13.688090978809182,-29.058393478393555,-47.296573638916016,61.122066497802734,0.03903379291296005,0.14737509191036224,0.8736532330513,-1.3048628568649292,-1.3207775354385376,-1.9224830865859985
598146102360,35.6400146484375,1030.425048828125,14.829937934875488,99.3931996699707,349.2807993005513,9.137997392438754,-27.60194206237793,-46.573787689208984,59.75198745727539,0.0831589475274086,0.049286894500255585,1.07835853099823,-0.7651634216308594,-1.4090476036071777,-1.2477824687957764
598146102438,35.750335693359375,1030.414306640625,12.847249984741211,94.77335533802245,343.8819198135707,6.144739986327421,-24.750438690185547,-46.823673248291016,57.2247200012207,0.1595294177532196,0.02063736878335476,0.9297034740447998,-1.1808571815490723,-0.20136699080467224,0.3948341906070709
598146102514,35.6400146484375,1030.411376953125,11.951120376586914,96.90740013286874,340.8880651927938,1.7743889111031077,-20.975055694580078,-47.78662872314453,54.26639938354492,0.28269192576408386,-0.007719228509813547,0.8853506445884705,-0.8488519787788391,-3.47224497795105,-0.6170640587806702
598146102597,35.71356201171875,1030.414794921875,15.363883018493652,97.16910566110695,327.4511262461815,358.51535465039973,-17.129884719848633,-49.05046844482422,49.525794982910156,0.5455032587051392,-0.10975778102874756,0.9372580647468567,-0.37634772062301636,-2.110626459121704,0.4818824827671051
598146102678,35.750335693359375,1030.419677734375,13.36625862121582,103.40678275081027,317.6724024680822,353.4071368517567,-11.391860008239746,-50.22525405883789,42.573062896728516,0.5935075879096985,-0.14425307512283325,0.6813763976097107,0.2818595767021179,0.5112073421478271,1.8453336954116821
598146102759,35.676788330078125,1030.428466796875,13.847929000854492,115.72657254168068,319.6769332158867,346.8642604429542,-9.212225914001465,-53.330101013183594,39.34836196899414,0.5789608359336853,-0.2694493234157562,0.7625274658203125,-0.4838600158691406,-1.1393505334854126,1.5841888189315796
598146102835,35.750335693359375,1030.439453125,12.41038703918457,127.30200831680311,318.3718411598482,338.1052446343501,-8.925798416137695,-57.30586242675781,36.723419189453125,0.6822428107261658,-0.4163558781147003,0.8834010362625122,0.3340885639190674,-0.188844233751297,1.874044418334961
598146102911,35.676788330078125,1030.438720703125,14.714188575744629,137.5143432392661,321.3330047877101,332.9048137323833,-10.158530235290527,-62.561798095703125,34.799560546875,0.6919406056404114,-0.4433732032775879,0.7186620235443115,0.9272387027740479,0.5341147780418396,1.7912721633911133
598146102986,35.6400146484375,1030.43994140625,14.172776222229004,144.60798646594458,326.4341862108475,332.3255317284961,-12.434391021728516,-66.57636260986328,35.6525764465332,0.6618773341178894,-0.39947009086608887,0.6660234928131104,0.49841129779815674,0.01579560898244381,1.1843775510787964
598146103066,35.5848503112793,1030.4404296875,12.522401809692383,149.84642737064254,328.58895721473016,331.8014444832919,-15.3745756149292,-70.23698425292969,37.21793746948242,0.6543615460395813,-0.4168383479118347,0.6845445036888123,0.45778876543045044,-1.2920668125152588,0.4354567229747772
598146103141,35.5848503112793,1030.4423828125,12.638153076171875,154.31093954048634,324.6690604236411,330.39511536337545,-17.31354522705078,-72.00798034667969,37.25361633300781,0.7569161653518677,-0.37510624527931213,0.8970481157302856,0.5732423067092896,-0.29116418957710266,0.22104302048683167
598146103217,35.566463470458984,1030.455078125,13.933808326721191,154.96021732298777,323.60943512108906,332.14789216856246,-18.04890251159668,-72.83427429199219,37.5277214050293,0.7140032649040222,-0.37631240487098694,0.9494429230690002,1.9544086456298828,1.1904895305633545,-0.18701496720314026
598146103293,35.60323715209961,1030.45458984375,12.720298767089844,150.45958711281293,328.019394570032,342.05243656890985,-18.967063903808594,-71.8180923461914,40.25300216674805,0.4941047728061676,-0.30539199709892273,0.8665859699249268,2.1483583450317383,1.147423505783081,0.035645417869091034
598146103369,35.60323715209961,1030.456787109375,12.720298767089844,147.45872984058948,332.71475859608574,351.84699443305254,-20.708560943603516,-68.94500732421875,46.075252532958984,0.5195615887641907,-0.040525950491428375,0.6718721985816956,2.0927696228027344,1.1852971315383911,-0.12623387575149536
598146103448,35.62162780761719,1030.454345703125,13.444669723510742,144.93976973506713,337.364170816951,1.683112824355996,-23.0744571685791,-64.5311508178711,51.19293975830078,0.5069544315338135,0.15757237374782562,0.6370235681533813,0.8276676535606384,0.41988295316696167,-1.0562762022018433
598146103523,35.676788330078125,1030.456787109375,14.613373756408691,138.95797202224,339.0365016540936,7.67360056551979,-25.530195236206055,-59.53742599487305,55.830047607421875,0.3988235294818878,0.16412778198719025,0.8063929080963135,0.002999595832079649,0.10376020520925522,-1.6744718551635742
598146103599,35.5848503112793,1030.45654296875,13.299049377441406,130.4552334490312,340.18948198222137,10.618867781862145,-26.424272537231445,-55.97114181518555,57.32493209838867,0.28875309228897095,0.12989403307437897,0.9287286400794983,0.1816776841878891,0.38475820422172546,-1.8785008192062378
598146103674,35.5848503112793,1030.45947265625,12.925661087036133,122.40718056887016,343.55275592199484,13.413951944960612,-26.49454689025879,-52.200923919677734,58.13571548461914,0.30184516310691833,0.22166962921619415,0.8178466558456421,0.28583019971847534,0.3074837625026703,-2.1185710430145264
598146103753,35.60323715209961,1030.4638671875,14.87847900390625,113.71610635948743,346.9871799423524,16.67208366019822,-27.168092727661133,-49.02701950073242,59.49641418457031,0.06473305821418762,0.22992457449436188,0.7147628664970398,-1.0382201671600342,-1.570315957069397,-2.4236981868743896
598146103828,35.69517517089844,1030.463623046875,14.90088176727295,102.99171215494859,345.2010683989211,15.301949420240952,-25.941238403320312,-46.02788162231445,57.87477111816406,0.07176399230957031,0.15223094820976257,0.9825856685638428,-1.0507428646087646,-2.1707966327667236,-1.4612798690795898
598146103905,35.5848503112793,1030.455322265625,12.668024063110352,96.96430243884411,340.37455108042474,11.892625491309591,-23.104143142700195,-45.18046188354492,55.64237976074219,0.17989486455917358,0.14251923561096191,0.9184934496879578,-0.38092920184135437,-1.6310970783233643,-0.6527997255325317
598146103980,35.6400146484375,1030.4580078125,12.697895050048828,95.15698657313456,335.2978712533875,10.515758392377984,-19.390270233154297,-44.978721618652344,52.22982406616211,0.3377271592617035,0.07599407434463501,0.9411572217941284,-1.1158000230789185,-0.46831509470939636,-0.042239900678396225
598146104059,35.60323715209961,1030.462158203125,14.187711715698242,96.42950545702129,332.2336332407609,5.638208888611044,-16.548593521118164,-45.23584747314453,49.8181266784668,0.37651851773262024,0.007040984462946653,0.9479807615280151,-0.8751192092895508,-2.9352943897247314,-0.1289827674627304
598146104135,35.65840148925781,1030.46044921875,15.266801834106445,97.41536130144259,320.07822049000333,2.3804084375481844,-12.701652526855469,-46.15177536010742,44.01125717163086,0.5784760117530823,-0.0564468577504158,0.7225611209869385,-0.08771389722824097,-0.4215839207172394,1.4757602214813232
598146104221,35.60323715209961,1030.453857421875,14.310929298400879,107.82044416228334,316.63756392202816,356.23646971778777,-9.453117370605469,-48.30131530761719,39.31012725830078,0.6529068350791931,-0.12109540402889252,0.6672419905662537,-0.3497750759124756,-1.0547456741333008,1.2485183477401733
598146104298,35.65840148925781,1030.450927734375,14.486421585083008,117.88686575350734,313.32945058999167,348.5667627869817,-7.887764930725098,-52.12163162231445,35.14728546142578,0.7217614650726318,-0.25835293531417847,0.7530232667922974,-0.07458028942346573,0.09032116830348969,1.6990314722061157
598146104373,35.62162780761719,1030.448974609375,12.051935195922852,129.18376641427665,314.76454846669225,340.19068921815716,-7.4264912605285645,-56.099727630615234,32.63216781616211,0.6364205479621887,-0.37607115507125854,0.7710568308830261,0.4302998483181,0.4189666509628296,2.4366512298583984
598146104449,35.676788330078125,1030.44140625,15.774608612060547,141.51785862126908,320.4950498595763,333.0356374681984,-8.793513298034668,-62.30968475341797,32.445716857910156,0.7190945744514465,-0.44120216369628906,0.8717036843299866,0.892113983631134,0.91895991563797,2.3257791996002197
598146104525,35.69517517089844,1030.439453125,14.366937637329102,149.55584380259353,328.44685512904806,331.3030660701236,-12.170708656311035,-67.61597442626953,34.24040603637695,0.6807881593704224,-0.46291249990463257,0.8297877311706543,1.2989503145217896,0.7036299109458923,1.5270729064941406
598146104601,35.5848503112793,1030.44091796875,14.620841026306152,153.7298680270367,333.82233524170584,333.80431891022266,-17.15033721923828,-71.13330841064453,37.79368591308594,0.5695054531097412,-0.4182857275009155,0.7637459635734558,1.4217342138290405,0.8291627168655396,1.1055759191513062
598146104677,35.60323715209961,1030.437744140625,15.498302459716797,155.9939254727342,337.84366546461155,337.60488717386977,-21.137813568115234,-72.53860473632812,41.37862777709961,0.5326536297798157,-0.3174532651901245,0.8680481910705566,0.9302930235862732,0.2576982378959656,0.4879911541938782
598146104757,35.52968978881836,1030.43994140625,12.272232055664062,156.33360444053724,339.4700991380789,341.23947159540177,-25.0552921295166,-72.7299575805664,46.052799224853516,0.5219860672950745,-0.29284822940826416,0.9806361198425293,1.0820931196212769,0.32489341497421265,-0.3620278537273407
598146104832,35.5848503112793,1030.438720703125,12.141548156738281,152.8308648681013,340.36345373057077,346.37245950195666,-27.08412742614746,-71.16213989257812,49.21549987792969,0.38015520572662354,-0.22048047184944153,0.8587877154350281,1.389663815498352,0.7063788175582886,-0.5400950908660889
598146104907,35.6400146484375,1030.437744140625,14.516292572021484,148.32262582719105,342.57022637969936,352.8462148232454,-28.422042846679688,-67.84220123291016,52.6683464050293,0.4759213328361511,0.05948418006300926,0.8487961292266846,0.9730535745620728,0.295571893453598,-1.4038585424423218
598146104983,35.6400146484375,1030.43896484375,14.516292572021484,141.25011520580458,343.1838505747333,358.82967344597967,-29.27460479736328,-64.60769653320312,55.942909240722656,0.27541857957839966,-0.0424557588994503,0.8524515628814697,0.4104467034339905,0.15415659546852112,-2.0941364765167236
598146105062,35.60323715209961,1030.43896484375,15.136116027832031,130.99953122398952,344.5872341755702,3.376005625829804,-29.1342716217041,-60.273136138916016,57.27324676513672,0.19032004475593567,0.04491662606596947,0.9287286400794983,0.33622658252716064,0.5994773507118225,-1.473191738128662
598146105139,35.676788330078125,1030.439697265625,14.695518493652344,123.88571161850281,347.60056508076536,6.455461940257402,-28.940330505371094,-56.92313003540039,58.593299865722656,0.2455977201461792,0.15902912616729736,0.8429474234580994,0.3728784918785095,0.4177449345588684,-2.0773375034332275
598146105216,35.566463470458984,1030.4345703125,12.18635368347168,115.76370145000888,350.2615290880005,9.441197173658436,-29.08763313293457,-53.21965026855469,59.65892028808594,0.011152512393891811,0.11192738264799118,0.9253169298171997,-0.5092108845710754,-0.7651956081390381,-1.9313406944274902
598146105293,35.566463470458984,1030.431640625,12.806177139282227,107.30996948409492,349.23822160881275,8.640314804792128,-28.361658096313477,-50.564449310302734,59.47672653198242,0.05576256290078163,0.1124129593372345,1.0420477390289307,-0.14391349256038666,0.17370426654815674,-0.815595269203186
598146105375,35.676788330078125,1030.429931640625,13.011541366577148,103.9864472452909,349.906033109627,7.888110340366856,-26.613279342651367,-48.7767333984375,59.25344467163086,0.06594529002904892,0.1549016684293747,0.8665859699249268,-0.26058876514434814,-0.3556104600429535,-0.5575047135353088
598146105452,35.65840148925781,1030.419921875,16.46164321899414,102.16231545384477,348.5702384994956,7.411679032549079,-25.224411010742188,-47.703495025634766,58.452537536621094,0.10885821282863617,0.1012445017695427,0.8461154699325562,-1.015312671661377,-1.570315957069397,-0.2703980505466461
598146105531,35.60323715209961,1030.412841796875,14.337066650390625,101.28782584384052,342.1808424177588,3.8762151700259224,-22.700580596923828,-48.13540267944336,56.02695083618164,0.23274807631969452,-0.0007236776873469353,0.9457874298095703,-0.9459795355796814,-2.760892391204834,0.2497536838054657
598146105612,35.6400146484375,1030.41015625,14.430413246154785,104.25112390581808,330.3069956777985,358.38422921232234,-17.19248390197754,-50.01036834716797,51.43412399291992,0.565626323223114,-0.08901235461235046,0.911669909954071,-0.4496515393257141,-1.1427103281021118,0.9122370481491089
598146105688,35.54807662963867,1030.402099609375,15.345212936401367,111.41057600514962,323.6025058941761,353.21633893238703,-13.116656303405762,-52.48226547241211,45.86806106567383,0.6078119277954102,-0.17295897006988525,0.7900651693344116,-0.29204830527305603,-1.2804604768753052,0.9433912038803101
598146105763,35.676788330078125,1030.404296875,13.963679313659668,119.164001845273,319.54404847048954,347.9157774571878,-10.715201377868652,-55.4329719543457,41.21169662475586,0.6565435528755188,-0.21372613310813904,0.6881998777389526,-0.12192234396934509,-1.694627046585083,0.9873734712600708
598146105843,35.49291229248047,1030.400634765625,16.805158615112305,128.51152553578567,315.186350213981,341.6457961340313,-9.79047966003418,-58.80562210083008,36.75108337402344,0.6907284259796143,-0.27765101194381714,0.6594436764717102,-0.3345034420490265,-0.8430808782577515,1.0496817827224731
598146105919,35.5848503112793,1030.404296875,13.500678062438965,136.88588387335489,313.7663538855353,334.7586226957731,-9.249748229980469,-61.97322463989258,32.7784309387207,0.632783830165863,-0.44602668285369873,0.7693509459495544,0.13952797651290894,-0.46464991569519043,1.709416151046753
598146105994,35.54807662963867,1030.404296875,14.206380844116211,146.57191173913336,316.07715714591234,328.13289865365925,-9.930148124694824,-65.38394165039062,30.66897964477539,0.7353384494781494,-0.5265961289405823,0.8339306116104126,1.2302279472351074,0.5133453607559204,2.069826602935791
598146106073,35.52968978881836,1030.410400390625,14.5610990524292,154.13499386746682,322.9970096242545,327.58338261417504,-12.879281044006348,-69.31269073486328,31.454925537109375,0.778978705406189,-0.48872366547584534,0.7001410722732544,1.4321188926696777,0.1657630205154419,1.2683714628219604
598146106149,35.54807662963867,1030.41015625,16.939579010009766,157.8972123264716,326.976523721514,331.15736105965425,-16.385475158691406,-72.12777709960938,33.80610275268555,0.7823729515075684,-0.46170637011528015,0.7418131828308105,1.3496520519256592,0.8511538505554199,0.5405255556106567
598146106224,35.54807662963867,1030.412109375,13.317718505859375,157.04877988815096,330.4805507846085,336.68745957964825,-19.458057403564453,-73.41101837158203,39.07258224487305,0.6565435528755188,-0.31359368562698364,0.8502582907676697,1.6648585796356201,1.091223955154419,-0.25848618149757385
598146106300,35.49291229248047,1030.420654296875,13.429734230041504,152.9529613297044,333.91613081448304,344.6737077855571,-21.59516716003418,-72.437744140625,44.57648849487305,0.5190767049789429,-0.16765199601650238,0.7476618885993958,1.759237289428711,1.4922568798065186,-0.4179220199584961
598146106379,35.6400146484375,1030.417236328125,14.493889808654785,147.95406881957715,338.68362676081404,353.9058572012704,-24.761137008666992,-68.74423217773438,51.0665168762207,0.37385159730911255,-0.012061295099556446,0.7703257203102112,0.8472153544425964,0.4540914297103882,-0.9188315272331238
598146106454,35.60323715209961,1030.414306640625,15.367616653442383,141.8616493629525,340.27992563966336,0.028773919446610886,-26.677688598632812,-64.92341613769531,54.796478271484375,0.39082279801368713,0.005341436713933945,0.9201992750167847,0.9721373319625854,0.9611095786094666,-1.292681097984314
598146106530,35.456138610839844,1030.418701171875,12.634418487548828,135.19363620459254,343.87942167188174,5.784973859062162,-27.898881912231445,-60.22288131713867,57.1427001953125,0.2502041757106781,0.10488639026880264,0.7637459635734558,0.9391505718231201,1.1410094499588013,-1.4328746795654297
598146106605,35.51130294799805,1030.415283203125,14.269856452941895,128.52571866888093,348.97919095340825,11.26228867715027,-29.717578887939453,-55.608909606933594,59.61470413208008,0.20583659410476685,0.21341466903686523,0.7915273904800415,-0.16498835384845734,0.0338161326944828,-2.2813665866851807
598146106685,35.51130294799805,1030.4208984375,14.934486389160156,118.9758164732608,351.62068977528253,12.689060553252574,-30.803417205810547,-51.61716079711914,60.925437927246094,-0.00024683563970029354,0.10804270207881927,0.9577286243438721,-0.4249114990234375,0.3410813510417938,-1.8861366510391235
598146106760,35.51130294799805,1030.427978515625,15.797012329101562,110.98496642739862,355.45334498698986,11.622781792675312,-30.895944595336914,-49.499671936035156,61.60622787475586,-0.10317730158567429,0.13717781007289886,0.9745436906814575,-0.1268092691898346,0.07046804577112198,-1.0770455598831177
598146106839,35.51130294799805,1030.43505859375,15.797012329101562,106.50486776586884,357.48923996346304,11.131907196083896,-31.256519317626953,-47.3475227355957,61.47111892700195,-0.10317730158567429,0.18476514518260956,0.9311656951904297,-0.5070728659629822,-0.7474805116653442,-1.00374174118042
598146106916,35.52968978881836,1030.4345703125,13.556686401367188,102.25388780004714,356.19972756892133,9.849153273725896,-30.7864933013916,-45.75651931762695,60.938819885253906,-0.0069113983772695065,0.11823998391628265,0.9830730557441711,-0.3482479155063629,-0.869042694568634,-0.5944620966911316
598146106990,35.456138610839844,1030.442138671875,14.624574661254883,100.31453754749205,353.0709263393916,8.376835134917009,-28.59079933166504,-45.67881393432617,59.577186584472656,-0.009132918901741505,0.1498030126094818,0.854401171207428,-0.18545232713222504,-3.3234994411468506,-0.7819976806640625
598146107066,35.51130294799805,1030.439453125,14.083163261413574,97.06645474807083,342.4545349279904,8.167549601011356,-25.36044692993164,-45.68098449707031,56.449649810791016,0.28075239062309265,0.05487111955881119,0.9918461441993713,-0.5709083080291748,-1.750215768814087,0.381395161151886
598146107143,35.566463470458984,1030.444580078125,15.748472213745117,98.82811079917886,332.65337568601484,5.670049522974351,-18.637720108032227,-45.76376724243164,51.22149658203125,0.4305839538574219,0.03180582821369171,0.9270228147506714,-0.4597308337688446,-1.4066040515899658,0.48310422897338867
598146107227,35.49291229248047,1030.4375,15.789544105529785,103.00938185433141,326.0910511673244,2.4925641991446135,-13.645001411437988,-47.16998291015625,46.59112548828125,0.4271897077560425,-0.010613939724862576,0.7503425478935242,0.21069377660751343,-0.3391171097755432,1.586937665939331
598146107303,35.676788330078125,1030.435302734375,12.783773422241211,112.6378517159742,324.81532209452774,358.14685527250697,-11.390824317932129,-49.886993408203125,43.804500579833984,0.6250255703926086,-0.010372713208198547,0.6638302206993103,-0.1967533379793167,-0.8384994268417358,1.0976346731185913
598146107379,35.52968978881836,1030.4306640625,14.139171600341797,120.9056454421129,322.2509787970652,352.78070263693445,-10.535426139831543,-53.1025505065918,40.927364349365234,0.6107212901115417,-0.2981552183628082,0.840266764163971,-0.6597892045974731,-1.0180938243865967,1.5215750932693481
598146107454,35.54807662963867,1030.428466796875,15.042769432067871,130.07637651614894,320.31460992208287,344.5595821547154,-9.887592315673828,-57.88363265991211,38.108150482177734,0.630359411239624,-0.31914186477661133,0.807611346244812,-0.040982700884342194,-0.2648969888687134,1.568917155265808
598146107534,35.5848503112793,1030.433837890625,15.658859252929688,138.5747027871539,322.36763842808904,339.1794028719086,-10.92370891571045,-62.1385383605957,36.98849105834961,0.7581283450126648,-0.3666633665561676,0.7737374901771545,0.24856741726398468,0.44187411665916443,1.123596429824829
598146107609,35.54807662963867,1030.42578125,16.316020965576172,143.00189480337275,325.3619728696551,337.4127317544025,-12.5732421875,-66.00548553466797,37.46698760986328,0.6461183428764343,-0.38403162360191345,0.79274582862854,0.09860000759363174,0.12544593214988708,0.6455943584442139
598146107685,35.52968978881836,1030.427490234375,14.239985466003418,145.32779278181553,326.94440475694205,336.1550241357309,-14.77515983581543,-68.3477554321289,38.47332763671875,0.603932797908783,-0.3866851031780243,0.8629305362701416,0.6022583842277527,0.46661415696144104,0.589394748210907
598146107761,35.51130294799805,1030.439208984375,16.681941986083984,146.528949849254,329.95221174664596,337.18634513436245,-16.553226470947266,-70.32032012939453,39.50815200805664,0.4819824695587158,-0.35653188824653625,0.7310905456542969,0.7418411374092102,0.736922025680542,0.961411714553833
598146107837,35.566463470458984,1030.442138671875,16.35335922241211,148.33114990327522,334.00211094330245,338.6978796580646,-18.95698356628418,-71.07135009765625,41.6241455078125,0.5006508231163025,-0.3326505124568939,0.8656112551689148,0.4550398886203766,0.19233566522598267,0.4824933409690857
598146107917,35.54807662963867,1030.43603515625,13.280379295349121,149.03135357622824,335.7998713743632,339.95130304057926,-21.167490005493164,-72.0075912475586,43.768089294433594,0.5084090828895569,-0.34061095118522644,0.9470059275627136,1.0161197185516357,0.9327043890953064,0.3557388186454773
598146107993,35.5848503112793,1030.440673828125,15.259334564208984,148.3549053012085,339.18960546698133,343.4446220746025,-23.31181526184082,-71.63801574707031,46.79058074951172,0.44949471950531006,-0.27258527278900146,0.9009472131729126,0.9739698767662048,0.5955067276954651,0.1440739929676056
598146108068,35.52968978881836,1030.4453125,13.61642837524414,146.97242037168456,341.1852825820742,347.50578937584226,-25.646053314208984,-70.19956970214844,49.58848571777344,0.43834221363067627,-0.12423133850097656,0.9523673057556152,1.0121490955352783,0.20882901549339294,-0.5712491869926453
598146108143,35.49291229248047,1030.4482421875,14.325864791870117,143.0839526960613,341.40980626801814,352.6364780699677,-26.651092529296875,-68.06385040283203,52.41539764404297,0.38379189372062683,-0.1343628168106079,0.9572411775588989,1.0527715682983398,0.3215336501598358,-0.9090576767921448
598146108223,35.5848503112793,1030.454345703125,13.231839179992676,137.93192734474235,342.4846167886424,358.54990046656116,-27.46392059326172,-64.33616638183594,54.692935943603516,0.3285142183303833,-0.005065743811428547,0.9119135737419128,1.3117784261703491,0.6617856025695801,-0.6818158030509949
598146108299,35.52968978881836,1030.459228515625,12.585878372192383,133.7297900616754,344.4369853817555,4.820400884094622,-27.76093292236328,-60.83147048950195,56.743011474609375,0.320513516664505,0.16582731902599335,0.8161407113075256,0.9651123285293579,-0.006195539608597755,-1.5800931453704834
598146108374,35.54807662963867,1030.4619140625,14.490155220031738,126.82571190522144,345.5959318801233,10.84106493462006,-28.066679000854492,-55.684513092041016,58.658329010009766,0.11807116121053696,0.1879214495420456,0.8802330493927002,0.43274328112602234,0.2262386977672577,-1.1341614723205566
598146108450,35.54807662963867,1030.457275390625,14.490155220031738,121.31764245284806,348.2530872031225,14.352016955759334,-28.2268123626709,-51.45249938964844,59.51607131958008,0.08825031667947769,0.2755695581436157,0.7798299193382263,0.5695770978927612,0.2210463285446167,-0.931354284286499
598146108525,35.52968978881836,1030.4560546875,16.114391326904297,117.358154470235,351.06198200872274,17.687046355767528,-28.71584129333496,-47.2040901184082,60.43115234375,0.07249132543802261,0.34525105357170105,0.7693509459495544,-0.018991554155945778,-0.050788700580596924,-1.1454625129699707
598146108603,35.456138610839844,1030.45556640625,16.633399963378906,112.95005966293549,353.2422095545289,18.690588975044577,-29.565996170043945,-45.33542251586914,60.29410171508789,0.06982442736625671,0.29207944869995117,0.9067959785461426,-0.10573441535234451,0.4788314700126648,-0.8745437860488892
598146108679,35.43775177001953,1030.45849609375,14.669382095336914,110.17132014252086,355.98452538364717,18.399530708848236,-29.971439361572266,-43.61032485961914,60.66769027709961,0.054550331085920334,0.3107745051383972,0.8234516978263855,0.02254728227853775,0.7265373468399048,-1.111559510231018
598146108754,35.474525451660156,1030.45849609375,15.475898742675781,107.46383998571697,0.2157533762041115,18.288017625364024,-31.710235595703125,-42.35248947143555,61.265811920166016,-0.09527856111526489,0.2733844518661499,0.8600062131881714,-0.43254733085632324,0.13583064079284668,-1.3904194831848145
598146108833,35.49291229248047,1030.4580078125,14.262389183044434,103.119122503726,3.415949852756508,16.11206108222324,-33.225345611572266,-41.583091735839844,61.45893478393555,-0.21425333619117737,0.23963627219200134,0.9053338170051575,-0.5324237942695618,-0.11065349727869034,-0.9078359603881836
598146108908,35.54807662963867,1030.458984375,13.190766334533691,100.28399977171293,4.981344900375864,13.397586811709262,-33.83001708984375,-42.326236724853516,61.737281799316406,-0.1826583743095398,0.17432506382465363,0.9365270137786865,-0.5831255912780762,-0.8357505202293396,-0.2209179848432541
598146108986,35.54807662963867,1030.453125,13.590291023254395,99.18382705115312,1.8586210451035263,10.570713240666262,-32.675689697265625,-43.04848098754883,61.42673873901367,-0.12366466224193573,0.13887736201286316,0.9007035493850708,-0.6707847714424133,-1.72089421749115,-0.07705921679735184
598146109062,35.566463470458984,1030.451416015625,15.927698135375977,98.77254038009163,355.1019415725896,7.790625611664202,-30.098543167114258,-44.282405853271484,59.490657806396484,0.10328195989131927,0.011168458499014378,0.9630899429321289,-0.7969284653663635,-1.1405723094940186,0.39452874660491943
598146109137,35.456138610839844,1030.44140625,14.96435832977295,101.026830655276,348.8171250785558,4.402968750327415,-25.114744186401367,-46.022552490234375,57.135986328125,0.19662363827228546,-0.0014473553746938705,1.000862956047058,-0.4004769027233124,-2.554114580154419,0.11994482576847076
598146109215,35.43775177001953,1030.437255859375,14.154107093811035,103.46492815121458,338.6958323088609,1.8521063252958037,-20.928009033203125,-47.776222229003906,54.077632904052734,0.3382120430469513,-0.00989026203751564,0.9343336820602417,-0.24440082907676697,-0.6659299731254578,0.770821750164032
598146109290,35.51130294799805,1030.435546875,12.585878372192383,108.67824762014524,335.0598425759071,359.069123656581,-16.66935920715332,-49.95515823364258,51.44525909423828,0.38088253140449524,-0.07888086885213852,0.9277539253234863,-0.19461530447006226,-1.5107566118240356,0.770821750164032
598146109369,35.51130294799805,1030.428466796875,13.747114181518555,114.72946054550721,330.17202430960987,355.4384308420503,-13.86674976348877,-51.88266372680664,48.00614929199219,0.4904680848121643,-0.13798122107982635,0.8597624897956848,0.25925755500793457,-0.7392337918281555,1.4085650444030762
598146109444,35.51130294799805,1030.43603515625,12.780040740966797,123.05779706844889,327.3418500496505,351.8838236668309,-12.647117614746094,-55.00410842895508,44.997493743896484,0.5704752206802368,-0.154867023229599,0.8061491847038269,-0.008606843650341034,-0.9246314167976379,1.190180778503418
598146109520,35.49291229248047,1030.43701171875,14.37813949584961,130.8715744600785,324.58930430470286,347.36953905473155,-12.180078506469727,-58.29005813598633,42.8487663269043,0.6029629707336426,-0.30683934688568115,0.9148379564285278,-0.03212515637278557,-0.31223902106285095,1.626033067703247
598146109598,35.51130294799805,1030.441162109375,15.871689796447754,139.4345826225235,324.78655675283824,342.3049076813902,-12.413723945617676,-61.92964172363281,41.00474548339844,0.643451452255249,-0.35580819845199585,0.756434977054596,0.3939533531665802,-0.012915057130157948,1.7701972723007202
